Stimuli,Condition,corrAns,trials.thisRepN,trials.thisTrialN,trials.thisN,trials.thisIndex,key_resp_3.keys,key_resp_4.keys,key_resp_4.corr,key_resp_4.rt,key_resp_2.keys,session,participant,date,exp_name,frameRate,
,,,,,,,None,,,,,002,S003,2022_May_26_1434,DecoderConst_fMRI,59.94988815596704,
12_2_1.png,mouse,None,0,0,0,0,,None,0,,,002,S003,2022_May_26_1434,DecoderConst_fMRI,59.94988815596704,
12_2_2.png,mouse,None,0,1,1,1,,None,0,,,002,S003,2022_May_26_1434,DecoderConst_fMRI,59.94988815596704,
12_2_3.png,mouse,None,0,2,2,2,,['t'],0,[0.0002288818359375],,002,S003,2022_May_26_1434,DecoderConst_fMRI,59.94988815596704,
12_2_4.png,mouse,None,0,3,3,3,,None,0,,,002,S003,2022_May_26_1434,DecoderConst_fMRI,59.94988815596704,
12_2_5.png,mouse,None,0,4,4,4,,None,0,,,002,S003,2022_May_26_1434,DecoderConst_fMRI,59.94988815596704,
12_2_6.png,mouse,None,0,5,5,5,,['t'],0,[0.00012302398681640625],,002,S003,2022_May_26_1434,DecoderConst_fMRI,59.94988815596704,
27_2_1.png,rabbit,right,0,6,6,6,,None,0,,,002,S003,2022_May_26_1434,DecoderConst_fMRI,59.94988815596704,
27_2_2.png,rabbit,None,0,7,7,7,,['t'],0,[0.00011897087097167969],,002,S003,2022_May_26_1434,DecoderConst_fMRI,59.94988815596704,
27_2_3.png,rabbit,None,0,8,8,8,,None,0,,,002,S003,2022_May_26_1434,DecoderConst_fMRI,59.94988815596704,
27_2_4.png,rabbit,None,0,9,9,9,,None,0,,,002,S003,2022_May_26_1434,DecoderConst_fMRI,59.94988815596704,
27_2_5.png,rabbit,None,0,10,10,10,,None,0,,,002,S003,2022_May_26_1434,DecoderConst_fMRI,59.94988815596704,
27_2_6.png,rabbit,None,0,11,11,11,,None,0,,,002,S003,2022_May_26_1434,DecoderConst_fMRI,59.94988815596704,
23_2_1.png,fly,right,0,12,12,12,,None,0,,,002,S003,2022_May_26_1434,DecoderConst_fMRI,59.94988815596704,
23_2_2.png,fly,None,0,13,13,13,,['right'],0,[8.988380432128906e-05],,002,S003,2022_May_26_1434,DecoderConst_fMRI,59.94988815596704,
23_2_3.png,fly,None,0,14,14,14,,None,0,,,002,S003,2022_May_26_1434,DecoderConst_fMRI,59.94988815596704,
3_2_9.png,cockroach,right,0,15,15,15,,None,0,,,002,S003,2022_May_26_1434,DecoderConst_fMRI,59.94988815596704,
3_2_10.png,cockroach,None,0,16,16,16,,['right'],0,[0.00015687942504882812],,002,S003,2022_May_26_1434,DecoderConst_fMRI,59.94988815596704,
3_2_11.png,cockroach,None,0,17,17,17,,None,0,,,002,S003,2022_May_26_1434,DecoderConst_fMRI,59.94988815596704,
3_2_12.png,cockroach,None,0,18,18,18,,None,0,,,002,S003,2022_May_26_1434,DecoderConst_fMRI,59.94988815596704,
39_2_1.png,umbrella,right,0,19,19,19,,None,0,,,002,S003,2022_May_26_1434,DecoderConst_fMRI,59.94988815596704,
39_2_2.png,umbrella,None,0,20,20,20,,['right'],0,[8.893013000488281e-05],,002,S003,2022_May_26_1434,DecoderConst_fMRI,59.94988815596704,
30_2_1.png,dolphin,right,0,21,21,21,,None,0,,,002,S003,2022_May_26_1434,DecoderConst_fMRI,59.94988815596704,
30_2_2.png,dolphin,None,0,22,22,22,,['right'],0,[0.00013709068298339844],,002,S003,2022_May_26_1434,DecoderConst_fMRI,59.94988815596704,
30_2_3.png,dolphin,None,0,23,23,23,,None,0,,,002,S003,2022_May_26_1434,DecoderConst_fMRI,59.94988815596704,
30_2_4.png,dolphin,None,0,24,24,24,,None,0,,,002,S003,2022_May_26_1434,DecoderConst_fMRI,59.94988815596704,
14_2_7.png,cat,right,0,25,25,25,,None,0,,,002,S003,2022_May_26_1434,DecoderConst_fMRI,59.94988815596704,
14_2_8.png,cat,None,0,26,26,26,,['right'],0,[0.00018787384033203125],,002,S003,2022_May_26_1434,DecoderConst_fMRI,59.94988815596704,
14_2_9.png,cat,None,0,27,27,27,,None,0,,,002,S003,2022_May_26_1434,DecoderConst_fMRI,59.94988815596704,
14_2_10.png,cat,None,0,28,28,28,,None,0,,,002,S003,2022_May_26_1434,DecoderConst_fMRI,59.94988815596704,
17_2_1.png,fish,right,0,29,29,29,,None,0,,,002,S003,2022_May_26_1434,DecoderConst_fMRI,59.94988815596704,
17_2_2.png,fish,None,0,30,30,30,,['right'],0,[0.00022602081298828125],,002,S003,2022_May_26_1434,DecoderConst_fMRI,59.94988815596704,
17_2_3.png,fish,None,0,31,31,31,,None,0,,,002,S003,2022_May_26_1434,DecoderConst_fMRI,59.94988815596704,
17_2_4.png,fish,None,0,32,32,32,,None,0,,,002,S003,2022_May_26_1434,DecoderConst_fMRI,59.94988815596704,
17_2_5.png,fish,None,0,33,33,33,,None,0,,,002,S003,2022_May_26_1434,DecoderConst_fMRI,59.94988815596704,
17_2_6.png,fish,None,0,34,34,34,,None,0,,,002,S003,2022_May_26_1434,DecoderConst_fMRI,59.94988815596704,
26_2_1.png,sheep,right,0,35,35,35,,None,0,,,002,S003,2022_May_26_1434,DecoderConst_fMRI,59.94988815596704,
26_2_2.png,sheep,None,0,36,36,36,,['right'],0,[0.00013899803161621094],,002,S003,2022_May_26_1434,DecoderConst_fMRI,59.94988815596704,
31_2_1.png,airplane,right,0,37,37,37,,None,0,,,002,S003,2022_May_26_1434,DecoderConst_fMRI,59.94988815596704,
31_2_2.png,airplane,None,0,38,38,38,,['right'],0,[0.0002639293670654297],,002,S003,2022_May_26_1434,DecoderConst_fMRI,59.94988815596704,
31_2_3.png,airplane,None,0,39,39,39,,None,0,,,002,S003,2022_May_26_1434,DecoderConst_fMRI,59.94988815596704,
31_2_4.png,airplane,None,0,40,40,40,,None,0,,,002,S003,2022_May_26_1434,DecoderConst_fMRI,59.94988815596704,
31_2_5.png,airplane,None,0,41,41,41,,None,0,,,002,S003,2022_May_26_1434,DecoderConst_fMRI,59.94988815596704,
31_2_6.png,airplane,None,0,42,42,42,,None,0,,,002,S003,2022_May_26_1434,DecoderConst_fMRI,59.94988815596704,
35_2_1.png,hammer,right,0,43,43,43,,None,0,,,002,S003,2022_May_26_1434,DecoderConst_fMRI,59.94988815596704,
35_2_2.png,hammer,None,0,44,44,44,,['right'],0,[0.0001819133758544922],,002,S003,2022_May_26_1434,DecoderConst_fMRI,59.94988815596704,
15_2_1.png,horse,right,0,45,45,45,,None,0,,,002,S003,2022_May_26_1434,DecoderConst_fMRI,59.94988815596704,
15_2_2.png,horse,None,0,46,46,46,,['right'],0,[0.0001220703125],,002,S003,2022_May_26_1434,DecoderConst_fMRI,59.94988815596704,
21_2_7.png,grasshoper,right,0,47,47,47,,None,0,,,002,S003,2022_May_26_1434,DecoderConst_fMRI,59.94988815596704,
21_2_8.png,grasshoper,None,0,48,48,48,,['right'],0,[8.392333984375e-05],,002,S003,2022_May_26_1434,DecoderConst_fMRI,59.94988815596704,
21_2_9.png,grasshoper,None,0,49,49,49,,None,0,,,002,S003,2022_May_26_1434,DecoderConst_fMRI,59.94988815596704,
21_2_10.png,grasshoper,None,0,50,50,50,,None,0,,,002,S003,2022_May_26_1434,DecoderConst_fMRI,59.94988815596704,
24_2_1.png,peacock,right,0,51,51,51,,None,0,,,002,S003,2022_May_26_1434,DecoderConst_fMRI,59.94988815596704,
24_2_2.png,peacock,None,0,52,52,52,,['right'],0,[0.0001571178436279297],,002,S003,2022_May_26_1434,DecoderConst_fMRI,59.94988815596704,
24_2_3.png,peacock,None,0,53,53,53,,None,0,,,002,S003,2022_May_26_1434,DecoderConst_fMRI,59.94988815596704,
11_2_1.png,chicken,right,0,54,54,54,,None,0,,,002,S003,2022_May_26_1434,DecoderConst_fMRI,59.94988815596704,
11_2_2.png,chicken,None,0,55,55,55,,['right'],0,[0.00013399124145507812],,002,S003,2022_May_26_1434,DecoderConst_fMRI,59.94988815596704,
11_2_3.png,chicken,None,0,56,56,56,,None,0,,,002,S003,2022_May_26_1434,DecoderConst_fMRI,59.94988815596704,
9_2_1.png,bird,right,0,57,57,57,,None,0,,,002,S003,2022_May_26_1434,DecoderConst_fMRI,59.94988815596704,
9_2_2.png,bird,None,0,58,58,58,,['right'],0,[0.00010204315185546875],,002,S003,2022_May_26_1434,DecoderConst_fMRI,59.94988815596704,
9_2_3.png,bird,None,0,59,59,59,,None,0,,,002,S003,2022_May_26_1434,DecoderConst_fMRI,59.94988815596704,
9_2_4.png,bird,None,0,60,60,60,,None,0,,,002,S003,2022_May_26_1434,DecoderConst_fMRI,59.94988815596704,
9_2_5.png,bird,None,0,61,61,61,,None,0,,,002,S003,2022_May_26_1434,DecoderConst_fMRI,59.94988815596704,
9_2_6.png,bird,None,0,62,62,62,,None,0,,,002,S003,2022_May_26_1434,DecoderConst_fMRI,59.94988815596704,
19_2_7.png,turtle,right,0,63,63,63,,None,0,,,002,S003,2022_May_26_1434,DecoderConst_fMRI,59.94988815596704,
19_2_8.png,turtle,None,0,64,64,64,,['right'],0,[0.0001499652862548828],,002,S003,2022_May_26_1434,DecoderConst_fMRI,59.94988815596704,
19_2_9.png,turtle,None,0,65,65,65,,None,0,,,002,S003,2022_May_26_1434,DecoderConst_fMRI,59.94988815596704,
19_2_10.png,turtle,None,0,66,66,66,,None,0,,,002,S003,2022_May_26_1434,DecoderConst_fMRI,59.94988815596704,
20_2_1.png,beatle,right,0,67,67,67,,None,0,,,002,S003,2022_May_26_1434,DecoderConst_fMRI,59.94988815596704,
20_2_2.png,beatle,None,0,68,68,68,,['right'],0,[9.393692016601562e-05],,002,S003,2022_May_26_1434,DecoderConst_fMRI,59.94988815596704,
36_2_1.png,key,right,0,69,69,69,,None,0,,,002,S003,2022_May_26_1434,DecoderConst_fMRI,59.94988815596704,
36_2_2.png,key,None,0,70,70,70,,['right'],0,[0.00012612342834472656],,002,S003,2022_May_26_1434,DecoderConst_fMRI,59.94988815596704,
36_2_3.png,key,None,0,71,71,71,,None,0,,,002,S003,2022_May_26_1434,DecoderConst_fMRI,59.94988815596704,
36_2_4.png,key,None,0,72,72,72,,None,0,,,002,S003,2022_May_26_1434,DecoderConst_fMRI,59.94988815596704,
36_2_5.png,key,None,0,73,73,73,,None,0,,,002,S003,2022_May_26_1434,DecoderConst_fMRI,59.94988815596704,
36_2_6.png,key,None,0,74,74,74,,None,0,,,002,S003,2022_May_26_1434,DecoderConst_fMRI,59.94988815596704,
38_2_1.png,cellphone,right,0,75,75,75,,None,0,,,002,S003,2022_May_26_1434,DecoderConst_fMRI,59.94988815596704,
38_2_2.png,cellphone,None,0,76,76,76,,['right'],0,[0.000125885009765625],,002,S003,2022_May_26_1434,DecoderConst_fMRI,59.94988815596704,
36_2_10.png,key,right,0,77,77,77,,None,0,,,002,S003,2022_May_26_1434,DecoderConst_fMRI,59.94988815596704,
36_2_11.png,key,None,0,78,78,78,,['right'],0,[0.00023794174194335938],,002,S003,2022_May_26_1434,DecoderConst_fMRI,59.94988815596704,
20_2_3.png,beatle,right,0,79,79,79,,None,0,,,002,S003,2022_May_26_1434,DecoderConst_fMRI,59.94988815596704,
20_2_4.png,beatle,None,0,80,80,80,,['right'],0,[0.0002319812774658203],,002,S003,2022_May_26_1434,DecoderConst_fMRI,59.94988815596704,
20_2_5.png,beatle,None,0,81,81,81,,None,0,,,002,S003,2022_May_26_1434,DecoderConst_fMRI,59.94988815596704,
19_2_1.png,turtle,right,0,82,82,82,,None,0,,,002,S003,2022_May_26_1434,DecoderConst_fMRI,59.94988815596704,
19_2_2.png,turtle,None,0,83,83,83,,['right'],0,[0.0001251697540283203],,002,S003,2022_May_26_1434,DecoderConst_fMRI,59.94988815596704,
19_2_3.png,turtle,None,0,84,84,84,,None,0,,,002,S003,2022_May_26_1434,DecoderConst_fMRI,59.94988815596704,
19_2_4.png,turtle,None,0,85,85,85,,None,0,,,002,S003,2022_May_26_1434,DecoderConst_fMRI,59.94988815596704,
19_2_5.png,turtle,None,0,86,86,86,,None,0,,,002,S003,2022_May_26_1434,DecoderConst_fMRI,59.94988815596704,
19_2_6.png,turtle,None,0,87,87,87,,None,0,,,002,S003,2022_May_26_1434,DecoderConst_fMRI,59.94988815596704,
11_2_6.png,chicken,right,0,88,88,88,,None,0,,,002,S003,2022_May_26_1434,DecoderConst_fMRI,59.94988815596704,
11_2_7.png,chicken,None,0,89,89,89,,['right'],0,[0.0001251697540283203],,002,S003,2022_May_26_1434,DecoderConst_fMRI,59.94988815596704,
11_2_8.png,chicken,None,0,90,90,90,,None,0,,,002,S003,2022_May_26_1434,DecoderConst_fMRI,59.94988815596704,
11_2_9.png,chicken,None,0,91,91,91,,None,0,,,002,S003,2022_May_26_1434,DecoderConst_fMRI,59.94988815596704,
11_2_10.png,chicken,None,0,92,92,92,,None,0,,,002,S003,2022_May_26_1434,DecoderConst_fMRI,59.94988815596704,
11_2_11.png,chicken,None,0,93,93,93,,None,0,,,002,S003,2022_May_26_1434,DecoderConst_fMRI,59.94988815596704,
38_2_13.png,cellphone,right,0,94,94,94,,None,0,,,002,S003,2022_May_26_1434,DecoderConst_fMRI,59.94988815596704,
38_2_14.png,cellphone,None,0,95,95,95,,['right'],0,[0.0001277923583984375],,002,S003,2022_May_26_1434,DecoderConst_fMRI,59.94988815596704,
38_2_15.png,cellphone,None,0,96,96,96,,None,0,,,002,S003,2022_May_26_1434,DecoderConst_fMRI,59.94988815596704,
26_2_3.png,sheep,right,0,97,97,97,,None,0,,,002,S003,2022_May_26_1434,DecoderConst_fMRI,59.94988815596704,
26_2_4.png,sheep,None,0,98,98,98,,['right'],0,[8.296966552734375e-05],,002,S003,2022_May_26_1434,DecoderConst_fMRI,59.94988815596704,
26_2_5.png,sheep,None,0,99,99,99,,None,0,,,002,S003,2022_May_26_1434,DecoderConst_fMRI,59.94988815596704,
26_2_6.png,sheep,None,0,100,100,100,,None,0,,,002,S003,2022_May_26_1434,DecoderConst_fMRI,59.94988815596704,
14_2_1.png,cat,right,0,101,101,101,,None,0,,,002,S003,2022_May_26_1434,DecoderConst_fMRI,59.94988815596704,
14_2_2.png,cat,None,0,102,102,102,,['right'],0,[0.00017595291137695312],,002,S003,2022_May_26_1434,DecoderConst_fMRI,59.94988815596704,
14_2_3.png,cat,None,0,103,103,103,,None,0,,,002,S003,2022_May_26_1434,DecoderConst_fMRI,59.94988815596704,
14_2_4.png,cat,None,0,104,104,104,,None,0,,,002,S003,2022_May_26_1434,DecoderConst_fMRI,59.94988815596704,
14_2_5.png,cat,None,0,105,105,105,,None,0,,,002,S003,2022_May_26_1434,DecoderConst_fMRI,59.94988815596704,
14_2_6.png,cat,None,0,106,106,106,,None,0,,,002,S003,2022_May_26_1434,DecoderConst_fMRI,59.94988815596704,
12_2_7.png,mouse,right,0,107,107,107,,None,0,,,002,S003,2022_May_26_1434,DecoderConst_fMRI,59.94988815596704,
12_2_8.png,mouse,None,0,108,108,108,,['right'],0,[8.606910705566406e-05],,002,S003,2022_May_26_1434,DecoderConst_fMRI,59.94988815596704,
27_2_7.png,rabbit,right,0,109,109,109,,None,0,,,002,S003,2022_May_26_1434,DecoderConst_fMRI,59.94988815596704,
27_2_8.png,rabbit,None,0,110,110,110,,['right'],0,[0.00013303756713867188],,002,S003,2022_May_26_1434,DecoderConst_fMRI,59.94988815596704,
24_2_10.png,peacock,right,0,111,111,111,,None,0,,,002,S003,2022_May_26_1434,DecoderConst_fMRI,59.94988815596704,
24_2_11.png,peacock,None,0,112,112,112,,['right'],0,[0.0002970695495605469],,002,S003,2022_May_26_1434,DecoderConst_fMRI,59.94988815596704,
24_2_12.png,peacock,None,0,113,113,113,,None,0,,,002,S003,2022_May_26_1434,DecoderConst_fMRI,59.94988815596704,
24_2_13.png,peacock,None,0,114,114,114,,None,0,,,002,S003,2022_May_26_1434,DecoderConst_fMRI,59.94988815596704,
24_2_14.png,peacock,None,0,115,115,115,,None,0,,,002,S003,2022_May_26_1434,DecoderConst_fMRI,59.94988815596704,
24_2_15.png,peacock,None,0,116,116,116,,None,0,,,002,S003,2022_May_26_1434,DecoderConst_fMRI,59.94988815596704,
30_2_6.png,dolphin,right,0,117,117,117,,None,0,,,002,S003,2022_May_26_1434,DecoderConst_fMRI,59.94988815596704,
30_2_7.png,dolphin,None,0,118,118,118,,['right'],0,[0.000164031982421875],,002,S003,2022_May_26_1434,DecoderConst_fMRI,59.94988815596704,
9_2_7.png,bird,right,0,119,119,119,,None,0,,,002,S003,2022_May_26_1434,DecoderConst_fMRI,59.94988815596704,
9_2_8.png,bird,None,0,120,120,120,,['right'],0,[0.0001068115234375],,002,S003,2022_May_26_1434,DecoderConst_fMRI,59.94988815596704,
9_2_9.png,bird,None,0,121,121,121,,None,0,,,002,S003,2022_May_26_1434,DecoderConst_fMRI,59.94988815596704,
23_2_4.png,fly,right,0,122,122,122,,None,0,,,002,S003,2022_May_26_1434,DecoderConst_fMRI,59.94988815596704,
23_2_5.png,fly,None,0,123,123,123,,['right'],0,[0.00011706352233886719],,002,S003,2022_May_26_1434,DecoderConst_fMRI,59.94988815596704,
23_2_6.png,fly,None,0,124,124,124,,None,0,,,002,S003,2022_May_26_1434,DecoderConst_fMRI,59.94988815596704,
23_2_7.png,fly,None,0,125,125,125,,None,0,,,002,S003,2022_May_26_1434,DecoderConst_fMRI,59.94988815596704,
3_2_1.png,cockroach,right,0,126,126,126,,None,0,,,002,S003,2022_May_26_1434,DecoderConst_fMRI,59.94988815596704,
3_2_2.png,cockroach,None,0,127,127,127,,['right'],0,[0.00015091896057128906],,002,S003,2022_May_26_1434,DecoderConst_fMRI,59.94988815596704,
3_2_3.png,cockroach,None,0,128,128,128,,None,0,,,002,S003,2022_May_26_1434,DecoderConst_fMRI,59.94988815596704,
3_2_4.png,cockroach,None,0,129,129,129,,None,0,,,002,S003,2022_May_26_1434,DecoderConst_fMRI,59.94988815596704,
3_2_5.png,cockroach,None,0,130,130,130,,None,0,,,002,S003,2022_May_26_1434,DecoderConst_fMRI,59.94988815596704,
3_2_6.png,cockroach,None,0,131,131,131,,None,0,,,002,S003,2022_May_26_1434,DecoderConst_fMRI,59.94988815596704,
39_2_3.png,umbrella,right,0,132,132,132,,None,0,,,002,S003,2022_May_26_1434,DecoderConst_fMRI,59.94988815596704,
39_2_4.png,umbrella,None,0,133,133,133,,['right'],0,[0.00016498565673828125],,002,S003,2022_May_26_1434,DecoderConst_fMRI,59.94988815596704,
39_2_5.png,umbrella,None,0,134,134,134,,None,0,,,002,S003,2022_May_26_1434,DecoderConst_fMRI,59.94988815596704,
39_2_6.png,umbrella,None,0,135,135,135,,None,0,,,002,S003,2022_May_26_1434,DecoderConst_fMRI,59.94988815596704,
17_2_7.png,fish,right,0,136,136,136,,None,0,,,002,S003,2022_May_26_1434,DecoderConst_fMRI,59.94988815596704,
17_2_8.png,fish,None,0,137,137,137,,['right'],0,[0.00013113021850585938],,002,S003,2022_May_26_1434,DecoderConst_fMRI,59.94988815596704,
17_2_9.png,fish,None,0,138,138,138,,None,0,,,002,S003,2022_May_26_1434,DecoderConst_fMRI,59.94988815596704,
21_2_1.png,grasshoper,right,0,139,139,139,,None,0,,,002,S003,2022_May_26_1434,DecoderConst_fMRI,59.94988815596704,
21_2_2.png,grasshoper,None,0,140,140,140,,"['right', 'right']",0,[0.00011992454528808594],,002,S003,2022_May_26_1434,DecoderConst_fMRI,59.94988815596704,
21_2_3.png,grasshoper,None,0,141,141,141,,None,0,,,002,S003,2022_May_26_1434,DecoderConst_fMRI,59.94988815596704,
21_2_4.png,grasshoper,None,0,142,142,142,,None,0,,,002,S003,2022_May_26_1434,DecoderConst_fMRI,59.94988815596704,
21_2_5.png,grasshoper,None,0,143,143,143,,None,0,,,002,S003,2022_May_26_1434,DecoderConst_fMRI,59.94988815596704,
21_2_6.png,grasshoper,None,0,144,144,144,,None,0,,,002,S003,2022_May_26_1434,DecoderConst_fMRI,59.94988815596704,
19_2_13.png,turtle,right,0,145,145,145,,None,0,,,002,S003,2022_May_26_1434,DecoderConst_fMRI,59.94988815596704,
19_2_14.png,turtle,None,0,146,146,146,,['right'],0,[0.0002868175506591797],,002,S003,2022_May_26_1434,DecoderConst_fMRI,59.94988815596704,
19_2_15.png,turtle,None,0,147,147,147,,None,0,,,002,S003,2022_May_26_1434,DecoderConst_fMRI,59.94988815596704,
31_2_7.png,airplane,right,0,148,148,148,,None,0,,,002,S003,2022_May_26_1434,DecoderConst_fMRI,59.94988815596704,
31_2_8.png,airplane,None,0,149,149,149,,['right'],0,[9.489059448242188e-05],,002,S003,2022_May_26_1434,DecoderConst_fMRI,59.94988815596704,
31_2_9.png,airplane,None,0,150,150,150,,None,0,,,002,S003,2022_May_26_1434,DecoderConst_fMRI,59.94988815596704,
35_2_3.png,hammer,right,0,151,151,151,,None,0,,,002,S003,2022_May_26_1434,DecoderConst_fMRI,59.94988815596704,
35_2_4.png,hammer,None,0,152,152,152,,['right'],0,[0.00014901161193847656],,002,S003,2022_May_26_1434,DecoderConst_fMRI,59.94988815596704,
35_2_5.png,hammer,None,0,153,153,153,,None,0,,,002,S003,2022_May_26_1434,DecoderConst_fMRI,59.94988815596704,
35_2_6.png,hammer,None,0,154,154,154,,None,0,,,002,S003,2022_May_26_1434,DecoderConst_fMRI,59.94988815596704,
35_2_7.png,hammer,None,0,155,155,155,,None,0,,,002,S003,2022_May_26_1434,DecoderConst_fMRI,59.94988815596704,
35_2_8.png,hammer,None,0,156,156,156,,None,0,,,002,S003,2022_May_26_1434,DecoderConst_fMRI,59.94988815596704,
15_2_3.png,horse,right,0,157,157,157,,None,0,,,002,S003,2022_May_26_1434,DecoderConst_fMRI,59.94988815596704,
15_2_4.png,horse,None,0,158,158,158,,['right'],0,[0.00011301040649414062],,002,S003,2022_May_26_1434,DecoderConst_fMRI,59.94988815596704,
15_2_5.png,horse,None,0,159,159,159,,None,0,,,002,S003,2022_May_26_1434,DecoderConst_fMRI,59.94988815596704,
15_2_6.png,horse,None,0,160,160,160,,None,0,,,002,S003,2022_May_26_1434,DecoderConst_fMRI,59.94988815596704,
9_2_14.png,bird,right,0,161,161,161,,None,0,,,002,S003,2022_May_26_1434,DecoderConst_fMRI,59.94988815596704,
9_2_15.png,bird,None,0,162,162,162,,['right'],0,[0.00018286705017089844],,002,S003,2022_May_26_1434,DecoderConst_fMRI,59.94988815596704,
20_2_6.png,beatle,right,0,163,163,163,,None,0,,,002,S003,2022_May_26_1434,DecoderConst_fMRI,59.94988815596704,
20_2_7.png,beatle,None,0,164,164,164,,"['right', 'right']",0,[0.0001590251922607422],,002,S003,2022_May_26_1434,DecoderConst_fMRI,59.94988815596704,
20_2_8.png,beatle,None,0,165,165,165,,None,0,,,002,S003,2022_May_26_1434,DecoderConst_fMRI,59.94988815596704,
20_2_9.png,beatle,None,0,166,166,166,,None,0,,,002,S003,2022_May_26_1434,DecoderConst_fMRI,59.94988815596704,
36_2_7.png,key,right,0,167,167,167,,None,0,,,002,S003,2022_May_26_1434,DecoderConst_fMRI,59.94988815596704,
36_2_8.png,key,None,0,168,168,168,,['right'],0,[0.00011706352233886719],,002,S003,2022_May_26_1434,DecoderConst_fMRI,59.94988815596704,
36_2_9.png,key,None,0,169,169,169,,None,0,,,002,S003,2022_May_26_1434,DecoderConst_fMRI,59.94988815596704,
38_2_7.png,cellphone,right,0,170,170,170,,None,0,,,002,S003,2022_May_26_1434,DecoderConst_fMRI,59.94988815596704,
38_2_8.png,cellphone,None,0,171,171,171,,['right'],0,[0.00013589859008789062],,002,S003,2022_May_26_1434,DecoderConst_fMRI,59.94988815596704,
38_2_9.png,cellphone,None,0,172,172,172,,None,0,,,002,S003,2022_May_26_1434,DecoderConst_fMRI,59.94988815596704,
38_2_10.png,cellphone,None,0,173,173,173,,None,0,,,002,S003,2022_May_26_1434,DecoderConst_fMRI,59.94988815596704,
38_2_11.png,cellphone,None,0,174,174,174,,None,0,,,002,S003,2022_May_26_1434,DecoderConst_fMRI,59.94988815596704,
38_2_12.png,cellphone,None,0,175,175,175,,None,0,,,002,S003,2022_May_26_1434,DecoderConst_fMRI,59.94988815596704,
36_2_12.png,key,right,0,176,176,176,,None,0,,,002,S003,2022_May_26_1434,DecoderConst_fMRI,59.94988815596704,
36_2_13.png,key,None,0,177,177,177,,['right'],0,[0.0001239776611328125],,002,S003,2022_May_26_1434,DecoderConst_fMRI,59.94988815596704,
36_2_14.png,key,None,0,178,178,178,,None,0,,,002,S003,2022_May_26_1434,DecoderConst_fMRI,59.94988815596704,
36_2_15.png,key,None,0,179,179,179,,None,0,,,002,S003,2022_May_26_1434,DecoderConst_fMRI,59.94988815596704,
20_2_10.png,beatle,right,0,180,180,180,,None,0,,,002,S003,2022_May_26_1434,DecoderConst_fMRI,59.94988815596704,
20_2_11.png,beatle,None,0,181,181,181,,['right'],0,[0.0001800060272216797],,002,S003,2022_May_26_1434,DecoderConst_fMRI,59.94988815596704,
20_2_12.png,beatle,None,0,182,182,182,,None,0,,,002,S003,2022_May_26_1434,DecoderConst_fMRI,59.94988815596704,
20_2_13.png,beatle,None,0,183,183,183,,None,0,,,002,S003,2022_May_26_1434,DecoderConst_fMRI,59.94988815596704,
20_2_14.png,beatle,None,0,184,184,184,,None,0,,,002,S003,2022_May_26_1434,DecoderConst_fMRI,59.94988815596704,
20_2_15.png,beatle,None,0,185,185,185,,None,0,,,002,S003,2022_May_26_1434,DecoderConst_fMRI,59.94988815596704,
19_2_11.png,turtle,right,0,186,186,186,,None,0,,,002,S003,2022_May_26_1434,DecoderConst_fMRI,59.94988815596704,
19_2_12.png,turtle,None,0,187,187,187,,['right'],0,[0.00015306472778320312],,002,S003,2022_May_26_1434,DecoderConst_fMRI,59.94988815596704,
11_2_12.png,chicken,right,0,188,188,188,,None,0,,,002,S003,2022_May_26_1434,DecoderConst_fMRI,59.94988815596704,
11_2_13.png,chicken,None,0,189,189,189,,['right'],0,[0.00010609626770019531],,002,S003,2022_May_26_1434,DecoderConst_fMRI,59.94988815596704,
11_2_14.png,chicken,None,0,190,190,190,,None,0,,,002,S003,2022_May_26_1434,DecoderConst_fMRI,59.94988815596704,
11_2_15.png,chicken,None,0,191,191,191,,None,0,,,002,S003,2022_May_26_1434,DecoderConst_fMRI,59.94988815596704,
24_2_6.png,peacock,right,0,192,192,192,,None,0,,,002,S003,2022_May_26_1434,DecoderConst_fMRI,59.94988815596704,
24_2_7.png,peacock,None,0,193,193,193,,None,0,,,002,S003,2022_May_26_1434,DecoderConst_fMRI,59.94988815596704,
24_2_8.png,peacock,None,0,194,194,194,,None,0,,,002,S003,2022_May_26_1434,DecoderConst_fMRI,59.94988815596704,
24_2_9.png,peacock,None,0,195,195,195,,None,0,,,002,S003,2022_May_26_1434,DecoderConst_fMRI,59.94988815596704,
26_2_7.png,sheep,right,0,196,196,196,,None,0,,,002,S003,2022_May_26_1434,DecoderConst_fMRI,59.94988815596704,
26_2_8.png,sheep,None,0,197,197,197,,['right'],0,[0.00010395050048828125],,002,S003,2022_May_26_1434,DecoderConst_fMRI,59.94988815596704,
26_2_9.png,sheep,None,0,198,198,198,,None,0,,,002,S003,2022_May_26_1434,DecoderConst_fMRI,59.94988815596704,
8_2_12.png,butterfly,right,0,199,199,199,,None,0,,,002,S003,2022_May_26_1434,DecoderConst_fMRI,59.94988815596704,
8_2_13.png,butterfly,None,0,200,200,200,,None,0,,,002,S003,2022_May_26_1434,DecoderConst_fMRI,59.94988815596704,
8_2_14.png,butterfly,None,0,201,201,201,,['right'],0,[0.00021910667419433594],,002,S003,2022_May_26_1434,DecoderConst_fMRI,59.94988815596704,
8_2_15.png,butterfly,None,0,202,202,202,,None,0,,,002,S003,2022_May_26_1434,DecoderConst_fMRI,59.94988815596704,
38_2_3.png,cellphone,right,0,203,203,203,,None,0,,,002,S003,2022_May_26_1434,DecoderConst_fMRI,59.94988815596704,
38_2_4.png,cellphone,None,0,204,204,204,,['right'],0,[0.0001499652862548828],,002,S003,2022_May_26_1434,DecoderConst_fMRI,59.94988815596704,
38_2_5.png,cellphone,None,0,205,205,205,,None,0,,,002,S003,2022_May_26_1434,DecoderConst_fMRI,59.94988815596704,
38_2_6.png,cellphone,None,0,206,206,206,,None,0,,,002,S003,2022_May_26_1434,DecoderConst_fMRI,59.94988815596704,
14_2_11.png,cat,right,0,207,207,207,,None,0,,,002,S003,2022_May_26_1434,DecoderConst_fMRI,59.94988815596704,
14_2_12.png,cat,None,0,208,208,208,,['right'],0,[0.00021600723266601562],,002,S003,2022_May_26_1434,DecoderConst_fMRI,59.94988815596704,
9_2_10.png,bird,right,0,209,209,209,,None,0,,,002,S003,2022_May_26_1434,DecoderConst_fMRI,59.94988815596704,
9_2_11.png,bird,None,0,210,210,210,,['right'],0,[0.000141143798828125],,002,S003,2022_May_26_1434,DecoderConst_fMRI,59.94988815596704,
9_2_12.png,bird,None,0,211,211,211,,None,0,,,002,S003,2022_May_26_1434,DecoderConst_fMRI,59.94988815596704,
9_2_13.png,bird,None,0,212,212,212,,None,0,,,002,S003,2022_May_26_1434,DecoderConst_fMRI,59.94988815596704,
12_2_9.png,mouse,right,0,213,213,213,,None,0,,,002,S003,2022_May_26_1434,DecoderConst_fMRI,59.94988815596704,
12_2_10.png,mouse,None,0,214,214,214,,['right'],0,[0.00011610984802246094],,002,S003,2022_May_26_1434,DecoderConst_fMRI,59.94988815596704,
12_2_11.png,mouse,None,0,215,215,215,,None,0,,,002,S003,2022_May_26_1434,DecoderConst_fMRI,59.94988815596704,
21_2_11.png,grasshoper,right,0,216,216,216,,None,0,,,002,S003,2022_May_26_1434,DecoderConst_fMRI,59.94988815596704,
21_2_12.png,grasshoper,None,0,217,217,217,,['right'],0,[0.00014901161193847656],,002,S003,2022_May_26_1434,DecoderConst_fMRI,59.94988815596704,
30_2_8.png,dolphin,right,0,218,218,218,,None,0,,,002,S003,2022_May_26_1434,DecoderConst_fMRI,59.94988815596704,
30_2_9.png,dolphin,None,0,219,219,219,,['right'],0,[0.00011897087097167969],,002,S003,2022_May_26_1434,DecoderConst_fMRI,59.94988815596704,
30_2_10.png,dolphin,None,0,220,220,220,,None,0,,,002,S003,2022_May_26_1434,DecoderConst_fMRI,59.94988815596704,
30_2_11.png,dolphin,None,0,221,221,221,,None,0,,,002,S003,2022_May_26_1434,DecoderConst_fMRI,59.94988815596704,
30_2_12.png,dolphin,None,0,222,222,222,,None,0,,,002,S003,2022_May_26_1434,DecoderConst_fMRI,59.94988815596704,
30_2_13.png,dolphin,None,0,223,223,223,,None,0,,,002,S003,2022_May_26_1434,DecoderConst_fMRI,59.94988815596704,
27_2_9.png,rabbit,right,0,224,224,224,,None,0,,,002,S003,2022_May_26_1434,DecoderConst_fMRI,59.94988815596704,
27_2_10.png,rabbit,None,0,225,225,225,,['right'],0,[0.00012183189392089844],,002,S003,2022_May_26_1434,DecoderConst_fMRI,59.94988815596704,
27_2_11.png,rabbit,None,0,226,226,226,,None,0,,,002,S003,2022_May_26_1434,DecoderConst_fMRI,59.94988815596704,
27_2_12.png,rabbit,None,0,227,227,227,,None,0,,,002,S003,2022_May_26_1434,DecoderConst_fMRI,59.94988815596704,
17_2_10.png,fish,right,0,228,228,228,,None,0,,,002,S003,2022_May_26_1434,DecoderConst_fMRI,59.94988815596704,
17_2_11.png,fish,None,0,229,229,229,,['right'],0,[0.0001709461212158203],,002,S003,2022_May_26_1434,DecoderConst_fMRI,59.94988815596704,
35_2_9.png,hammer,right,0,230,230,230,,None,0,,,002,S003,2022_May_26_1434,DecoderConst_fMRI,59.94988815596704,
35_2_10.png,hammer,None,0,231,231,231,,['right'],0,[0.0002617835998535156],,002,S003,2022_May_26_1434,DecoderConst_fMRI,59.94988815596704,
35_2_11.png,hammer,None,0,232,232,232,,None,0,,,002,S003,2022_May_26_1434,DecoderConst_fMRI,59.94988815596704,
23_2_8.png,fly,right,0,233,233,233,,None,0,,,002,S003,2022_May_26_1434,DecoderConst_fMRI,59.94988815596704,
23_2_9.png,fly,None,0,234,234,234,,['right'],0,[0.00011181831359863281],,002,S003,2022_May_26_1434,DecoderConst_fMRI,59.94988815596704,
39_2_7.png,umbrella,right,0,235,235,235,,None,0,,,002,S003,2022_May_26_1434,DecoderConst_fMRI,59.94988815596704,
39_2_8.png,umbrella,None,0,236,236,236,,['right'],0,[0.00014591217041015625],,002,S003,2022_May_26_1434,DecoderConst_fMRI,59.94988815596704,
39_2_9.png,umbrella,None,0,237,237,237,,None,0,,,002,S003,2022_May_26_1434,DecoderConst_fMRI,59.94988815596704,
39_2_10.png,umbrella,None,0,238,238,238,,None,0,,,002,S003,2022_May_26_1434,DecoderConst_fMRI,59.94988815596704,
39_2_11.png,umbrella,None,0,239,239,239,,None,0,,,002,S003,2022_May_26_1434,DecoderConst_fMRI,59.94988815596704,
39_2_12.png,umbrella,None,0,240,240,240,,None,0,,,002,S003,2022_May_26_1434,DecoderConst_fMRI,59.94988815596704,
39_2_13.png,umbrella,None,0,241,241,241,,None,0,,,002,S003,2022_May_26_1434,DecoderConst_fMRI,59.94988815596704,
6_2_12.png,worm,right,0,242,242,242,,None,0,,,002,S003,2022_May_26_1434,DecoderConst_fMRI,59.94988815596704,
6_2_13.png,worm,None,0,243,243,243,,['right'],0,[0.0001049041748046875],,002,S003,2022_May_26_1434,DecoderConst_fMRI,59.94988815596704,
6_2_14.png,worm,None,0,244,244,244,,None,0,,,002,S003,2022_May_26_1434,DecoderConst_fMRI,59.94988815596704,
6_2_15.png,worm,None,0,245,245,245,,None,0,,,002,S003,2022_May_26_1434,DecoderConst_fMRI,59.94988815596704,
3_2_7.png,cockroach,right,0,246,246,246,,None,0,,,002,S003,2022_May_26_1434,DecoderConst_fMRI,59.94988815596704,
3_2_8.png,cockroach,None,0,247,247,247,,['right'],0,[8.988380432128906e-05],,002,S003,2022_May_26_1434,DecoderConst_fMRI,59.94988815596704,
31_2_10.png,airplane,right,0,248,248,248,,None,0,,,002,S003,2022_May_26_1434,DecoderConst_fMRI,59.94988815596704,
31_2_11.png,airplane,None,0,249,249,249,,['right'],0,[0.0001049041748046875],,002,S003,2022_May_26_1434,DecoderConst_fMRI,59.94988815596704,
31_2_12.png,airplane,None,0,250,250,250,,None,0,,,002,S003,2022_May_26_1434,DecoderConst_fMRI,59.94988815596704,
31_2_13.png,airplane,None,0,251,251,251,,None,0,,,002,S003,2022_May_26_1434,DecoderConst_fMRI,59.94988815596704,
4_2_1.png,ants,right,0,252,252,252,,None,0,,,002,S003,2022_May_26_1434,DecoderConst_fMRI,59.94988815596704,
4_2_2.png,ants,None,0,253,253,253,,['right'],0,[0.00010800361633300781],,002,S003,2022_May_26_1434,DecoderConst_fMRI,59.94988815596704,
4_2_3.png,ants,None,0,254,254,254,,None,0,,,002,S003,2022_May_26_1434,DecoderConst_fMRI,59.94988815596704,
4_2_4.png,ants,None,0,255,255,255,,None,0,,,002,S003,2022_May_26_1434,DecoderConst_fMRI,59.94988815596704,
2_2_1.png,frog,right,0,256,256,256,,None,0,,,002,S003,2022_May_26_1434,DecoderConst_fMRI,59.94988815596704,
2_2_2.png,frog,None,0,257,257,257,,['right'],0,[0.000186920166015625],,002,S003,2022_May_26_1434,DecoderConst_fMRI,59.94988815596704,
2_2_3.png,frog,None,0,258,258,258,,None,0,,,002,S003,2022_May_26_1434,DecoderConst_fMRI,59.94988815596704,
2_2_4.png,frog,None,0,259,259,259,,None,0,,,002,S003,2022_May_26_1434,DecoderConst_fMRI,59.94988815596704,
32_2_10.png,car,right,0,260,260,260,,None,0,,,002,S003,2022_May_26_1434,DecoderConst_fMRI,59.94988815596704,
32_2_11.png,car,None,0,261,261,261,,['right'],0,[0.0001480579376220703],,002,S003,2022_May_26_1434,DecoderConst_fMRI,59.94988815596704,
29_2_1.png,whale,right,0,262,262,262,,None,0,,,002,S003,2022_May_26_1434,DecoderConst_fMRI,59.94988815596704,
29_2_2.png,whale,None,0,263,263,263,,['right'],0,[8.702278137207031e-05],,002,S003,2022_May_26_1434,DecoderConst_fMRI,59.94988815596704,
29_2_3.png,whale,None,0,264,264,264,,None,0,,,002,S003,2022_May_26_1434,DecoderConst_fMRI,59.94988815596704,
29_2_4.png,whale,None,0,265,265,265,,None,0,,,002,S003,2022_May_26_1434,DecoderConst_fMRI,59.94988815596704,
29_2_5.png,whale,None,0,266,266,266,,None,0,,,002,S003,2022_May_26_1434,DecoderConst_fMRI,59.94988815596704,
29_2_6.png,whale,None,0,267,267,267,,None,0,,,002,S003,2022_May_26_1434,DecoderConst_fMRI,59.94988815596704,
13_2_1.png,dog,right,0,268,268,268,,None,0,,,002,S003,2022_May_26_1434,DecoderConst_fMRI,59.94988815596704,
13_2_2.png,dog,None,0,269,269,269,,['right'],0,[0.00011420249938964844],,002,S003,2022_May_26_1434,DecoderConst_fMRI,59.94988815596704,
13_2_3.png,dog,None,0,270,270,270,,None,0,,,002,S003,2022_May_26_1434,DecoderConst_fMRI,59.94988815596704,
5_2_6.png,spider,right,0,271,271,271,,['right'],0,[0.00018787384033203125],,002,S003,2022_May_26_1434,DecoderConst_fMRI,59.94988815596704,
5_2_7.png,spider,None,0,272,272,272,,None,0,,,002,S003,2022_May_26_1434,DecoderConst_fMRI,59.94988815596704,
5_2_8.png,spider,None,0,273,273,273,,None,0,,,002,S003,2022_May_26_1434,DecoderConst_fMRI,59.94988815596704,
5_2_9.png,spider,None,0,274,274,274,,None,0,,,002,S003,2022_May_26_1434,DecoderConst_fMRI,59.94988815596704,
5_2_10.png,spider,None,0,275,275,275,,None,0,,,002,S003,2022_May_26_1434,DecoderConst_fMRI,59.94988815596704,
5_2_11.png,spider,None,0,276,276,276,,None,0,,,002,S003,2022_May_26_1434,DecoderConst_fMRI,59.94988815596704,
7_2_10.png,bee,right,0,277,277,277,,None,0,,,002,S003,2022_May_26_1434,DecoderConst_fMRI,59.94988815596704,
7_2_11.png,bee,None,0,278,278,278,,['right'],0,[0.00011396408081054688],,002,S003,2022_May_26_1434,DecoderConst_fMRI,59.94988815596704,
1_2_10.png,snake,right,0,279,279,279,,None,0,,,002,S003,2022_May_26_1434,DecoderConst_fMRI,59.94988815596704,
1_2_11.png,snake,None,0,280,280,280,,['right'],0,[9.107589721679688e-05],,002,S003,2022_May_26_1434,DecoderConst_fMRI,59.94988815596704,
1_2_12.png,snake,None,0,281,281,281,,None,0,,,002,S003,2022_May_26_1434,DecoderConst_fMRI,59.94988815596704,
1_2_13.png,snake,None,0,282,282,282,,None,0,,,002,S003,2022_May_26_1434,DecoderConst_fMRI,59.94988815596704,
1_2_14.png,snake,None,0,283,283,283,,None,0,,,002,S003,2022_May_26_1434,DecoderConst_fMRI,59.94988815596704,
1_2_15.png,snake,None,0,284,284,284,,None,0,,,002,S003,2022_May_26_1434,DecoderConst_fMRI,59.94988815596704,
15_2_13.png,horse,right,0,285,285,285,,None,0,,,002,S003,2022_May_26_1434,DecoderConst_fMRI,59.94988815596704,
15_2_14.png,horse,None,0,286,286,286,,['right'],0,[0.00024700164794921875],,002,S003,2022_May_26_1434,DecoderConst_fMRI,59.94988815596704,
15_2_15.png,horse,None,0,287,287,287,,None,0,,,002,S003,2022_May_26_1434,DecoderConst_fMRI,59.94988815596704,
33_2_10.png,bicycle,right,0,288,288,288,,None,0,,,002,S003,2022_May_26_1434,DecoderConst_fMRI,59.94988815596704,
33_2_11.png,bicycle,None,0,289,289,289,,['right'],0,[0.00013017654418945312],,002,S003,2022_May_26_1434,DecoderConst_fMRI,59.94988815596704,
33_2_12.png,bicycle,None,0,290,290,290,,None,0,,,002,S003,2022_May_26_1434,DecoderConst_fMRI,59.94988815596704,
33_2_13.png,bicycle,None,0,291,291,291,,None,0,,,002,S003,2022_May_26_1434,DecoderConst_fMRI,59.94988815596704,
33_2_14.png,bicycle,None,0,292,292,292,,None,0,,,002,S003,2022_May_26_1434,DecoderConst_fMRI,59.94988815596704,
33_2_15.png,bicycle,None,0,293,293,293,,None,0,,,002,S003,2022_May_26_1434,DecoderConst_fMRI,59.94988815596704,
28_2_5.png,giraffe,right,0,294,294,294,,None,0,,,002,S003,2022_May_26_1434,DecoderConst_fMRI,59.94988815596704,
28_2_6.png,giraffe,None,0,295,295,295,,['right'],0,[0.00011396408081054688],,002,S003,2022_May_26_1434,DecoderConst_fMRI,59.94988815596704,
16_2_13.png,shark,right,0,296,296,296,,None,0,,,002,S003,2022_May_26_1434,DecoderConst_fMRI,59.94988815596704,
16_2_14.png,shark,None,0,297,297,297,,['right'],0,[0.00013685226440429688],,002,S003,2022_May_26_1434,DecoderConst_fMRI,59.94988815596704,
16_2_15.png,shark,None,0,298,298,298,,None,0,,,002,S003,2022_May_26_1434,DecoderConst_fMRI,59.94988815596704,
22_2_1.png,catterpilar,right,0,299,299,299,,None,0,,,002,S003,2022_May_26_1434,DecoderConst_fMRI,59.94988815596704,
22_2_2.png,catterpilar,None,0,300,300,300,,['right'],0,[0.0001480579376220703],,002,S003,2022_May_26_1434,DecoderConst_fMRI,59.94988815596704,
22_2_3.png,catterpilar,None,0,301,301,301,,None,0,,,002,S003,2022_May_26_1434,DecoderConst_fMRI,59.94988815596704,
22_2_4.png,catterpilar,None,0,302,302,302,,None,0,,,002,S003,2022_May_26_1434,DecoderConst_fMRI,59.94988815596704,
24_2_4.png,peacock,right,0,303,303,303,,None,0,,,002,S003,2022_May_26_1434,DecoderConst_fMRI,59.94988815596704,
24_2_5.png,peacock,None,0,304,304,304,,['right'],0,[0.00011205673217773438],,002,S003,2022_May_26_1434,DecoderConst_fMRI,59.94988815596704,
11_2_4.png,chicken,right,0,305,305,305,,None,0,,,002,S003,2022_May_26_1434,DecoderConst_fMRI,59.94988815596704,
11_2_5.png,chicken,None,0,306,306,306,,None,0,,,002,S003,2022_May_26_1434,DecoderConst_fMRI,59.94988815596704,
21_2_13.png,grasshoper,right,0,307,307,307,,['right'],0,[0.00010013580322265625],,002,S003,2022_May_26_1434,DecoderConst_fMRI,59.94988815596704,
21_2_14.png,grasshoper,None,0,308,308,308,,['right'],0,[0.0001049041748046875],,002,S003,2022_May_26_1434,DecoderConst_fMRI,59.94988815596704,
21_2_15.png,grasshoper,None,0,309,309,309,,None,0,,,002,S003,2022_May_26_1434,DecoderConst_fMRI,59.94988815596704,
26_2_10.png,sheep,right,0,310,310,310,,None,0,,,002,S003,2022_May_26_1434,DecoderConst_fMRI,59.94988815596704,
26_2_11.png,sheep,None,0,311,311,311,,['right'],0,[0.00011706352233886719],,002,S003,2022_May_26_1434,DecoderConst_fMRI,59.94988815596704,
26_2_12.png,sheep,None,0,312,312,312,,None,0,,,002,S003,2022_May_26_1434,DecoderConst_fMRI,59.94988815596704,
26_2_13.png,sheep,None,0,313,313,313,,None,0,,,002,S003,2022_May_26_1434,DecoderConst_fMRI,59.94988815596704,
26_2_14.png,sheep,None,0,314,314,314,,None,0,,,002,S003,2022_May_26_1434,DecoderConst_fMRI,59.94988815596704,
26_2_15.png,sheep,None,0,315,315,315,,None,0,,,002,S003,2022_May_26_1434,DecoderConst_fMRI,59.94988815596704,
12_2_12.png,mouse,right,0,316,316,316,,None,0,,,002,S003,2022_May_26_1434,DecoderConst_fMRI,59.94988815596704,
12_2_13.png,mouse,None,0,317,317,317,,['right'],0,[9.393692016601562e-05],,002,S003,2022_May_26_1434,DecoderConst_fMRI,59.94988815596704,
12_2_14.png,mouse,None,0,318,318,318,,None,0,,,002,S003,2022_May_26_1434,DecoderConst_fMRI,59.94988815596704,
12_2_15.png,mouse,None,0,319,319,319,,None,0,,,002,S003,2022_May_26_1434,DecoderConst_fMRI,59.94988815596704,
14_2_13.png,cat,right,0,320,320,320,,None,0,,,002,S003,2022_May_26_1434,DecoderConst_fMRI,59.94988815596704,
14_2_14.png,cat,None,0,321,321,321,,['right'],0,[0.00020503997802734375],,002,S003,2022_May_26_1434,DecoderConst_fMRI,59.94988815596704,
14_2_15.png,cat,None,0,322,322,322,,None,0,,,002,S003,2022_May_26_1434,DecoderConst_fMRI,59.94988815596704,
8_2_10.png,butterfly,right,0,323,323,323,,['right'],0,[0.00012087821960449219],,002,S003,2022_May_26_1434,DecoderConst_fMRI,59.94988815596704,
8_2_11.png,butterfly,None,0,324,324,324,,['right'],0,[0.00017404556274414062],,002,S003,2022_May_26_1434,DecoderConst_fMRI,59.94988815596704,
35_2_12.png,hammer,right,0,325,325,325,,None,0,,,002,S003,2022_May_26_1434,DecoderConst_fMRI,59.94988815596704,
35_2_13.png,hammer,None,0,326,326,326,,['right'],0,[0.0002429485321044922],,002,S003,2022_May_26_1434,DecoderConst_fMRI,59.94988815596704,
35_2_14.png,hammer,None,0,327,327,327,,None,0,,,002,S003,2022_May_26_1434,DecoderConst_fMRI,59.94988815596704,
35_2_15.png,hammer,None,0,328,328,328,,None,0,,,002,S003,2022_May_26_1434,DecoderConst_fMRI,59.94988815596704,
30_2_5.png,dolphin,right,0,329,329,329,,None,0,,,002,S003,2022_May_26_1434,DecoderConst_fMRI,59.94988815596704,
30_2_14.png,dolphin,None,0,330,330,330,,['right'],0,[0.00015091896057128906],,002,S003,2022_May_26_1434,DecoderConst_fMRI,59.94988815596704,
30_2_15.png,dolphin,None,0,331,331,331,,None,0,,,002,S003,2022_May_26_1434,DecoderConst_fMRI,59.94988815596704,
1_2_7.png,snake,right,0,332,332,332,,None,0,,,002,S003,2022_May_26_1434,DecoderConst_fMRI,59.94988815596704,
1_2_8.png,snake,None,0,333,333,333,,['right'],0,[0.00011086463928222656],,002,S003,2022_May_26_1434,DecoderConst_fMRI,59.94988815596704,
1_2_9.png,snake,None,0,334,334,334,,None,0,,,002,S003,2022_May_26_1434,DecoderConst_fMRI,59.94988815596704,
33_2_7.png,bicycle,right,0,335,335,335,,None,0,,,002,S003,2022_May_26_1434,DecoderConst_fMRI,59.94988815596704,
33_2_8.png,bicycle,None,0,336,336,336,,['right'],0,[0.00014400482177734375],,002,S003,2022_May_26_1434,DecoderConst_fMRI,59.94988815596704,
33_2_9.png,bicycle,None,0,337,337,337,,None,0,,,002,S003,2022_May_26_1434,DecoderConst_fMRI,59.94988815596704,
17_2_12.png,fish,right,0,338,338,338,,None,0,,,002,S003,2022_May_26_1434,DecoderConst_fMRI,59.94988815596704,
17_2_13.png,fish,None,0,339,339,339,,['right'],0,[0.00011086463928222656],,002,S003,2022_May_26_1434,DecoderConst_fMRI,59.94988815596704,
17_2_14.png,fish,None,0,340,340,340,,None,0,,,002,S003,2022_May_26_1434,DecoderConst_fMRI,59.94988815596704,
17_2_15.png,fish,None,0,341,341,341,,None,0,,,002,S003,2022_May_26_1434,DecoderConst_fMRI,59.94988815596704,
23_2_10.png,fly,right,0,342,342,342,,None,0,,,002,S003,2022_May_26_1434,DecoderConst_fMRI,59.94988815596704,
23_2_11.png,fly,None,0,343,343,343,,['right'],0,[0.00011086463928222656],,002,S003,2022_May_26_1434,DecoderConst_fMRI,59.94988815596704,
23_2_12.png,fly,None,0,344,344,344,,None,0,,,002,S003,2022_May_26_1434,DecoderConst_fMRI,59.94988815596704,
23_2_13.png,fly,None,0,345,345,345,,None,0,,,002,S003,2022_May_26_1434,DecoderConst_fMRI,59.94988815596704,
23_2_14.png,fly,None,0,346,346,346,,None,0,,,002,S003,2022_May_26_1434,DecoderConst_fMRI,59.94988815596704,
23_2_15.png,fly,None,0,347,347,347,,None,0,,,002,S003,2022_May_26_1434,DecoderConst_fMRI,59.94988815596704,
39_2_14.png,umbrella,right,0,348,348,348,,None,0,,,002,S003,2022_May_26_1434,DecoderConst_fMRI,59.94988815596704,
39_2_15.png,umbrella,None,0,349,349,349,,['right'],0,[8.893013000488281e-05],,002,S003,2022_May_26_1434,DecoderConst_fMRI,59.94988815596704,
4_2_5.png,ants,right,0,350,350,350,,None,0,,,002,S003,2022_May_26_1434,DecoderConst_fMRI,59.94988815596704,
4_2_6.png,ants,None,0,351,351,351,,['right'],0,[0.00013899803161621094],,002,S003,2022_May_26_1434,DecoderConst_fMRI,59.94988815596704,
32_2_12.png,car,right,0,352,352,352,,None,0,,,002,S003,2022_May_26_1434,DecoderConst_fMRI,59.94988815596704,
32_2_13.png,car,None,0,353,353,353,,['right'],0,[0.00010395050048828125],,002,S003,2022_May_26_1434,DecoderConst_fMRI,59.94988815596704,
32_2_14.png,car,None,0,354,354,354,,None,0,,,002,S003,2022_May_26_1434,DecoderConst_fMRI,59.94988815596704,
32_2_15.png,car,None,0,355,355,355,,None,0,,,002,S003,2022_May_26_1434,DecoderConst_fMRI,59.94988815596704,
31_2_14.png,airplane,right,0,356,356,356,,None,0,,,002,S003,2022_May_26_1434,DecoderConst_fMRI,59.94988815596704,
31_2_15.png,airplane,None,0,357,357,357,,['right'],0,[0.0001380443572998047],,002,S003,2022_May_26_1434,DecoderConst_fMRI,59.94988815596704,
2_2_5.png,frog,right,0,358,358,358,,None,0,,,002,S003,2022_May_26_1434,DecoderConst_fMRI,59.94988815596704,
2_2_6.png,frog,None,0,359,359,359,,['right'],0,[0.0001049041748046875],,002,S003,2022_May_26_1434,DecoderConst_fMRI,59.94988815596704,
16_2_1.png,shark,right,0,360,360,360,,None,0,,,002,S003,2022_May_26_1434,DecoderConst_fMRI,59.94988815596704,
16_2_2.png,shark,None,0,361,361,361,,['right'],0,[0.0001938343048095703],,002,S003,2022_May_26_1434,DecoderConst_fMRI,59.94988815596704,
16_2_3.png,shark,None,0,362,362,362,,None,0,,,002,S003,2022_May_26_1434,DecoderConst_fMRI,59.94988815596704,
16_2_4.png,shark,None,0,363,363,363,,None,0,,,002,S003,2022_May_26_1434,DecoderConst_fMRI,59.94988815596704,
16_2_5.png,shark,None,0,364,364,364,,None,0,,,002,S003,2022_May_26_1434,DecoderConst_fMRI,59.94988815596704,
16_2_6.png,shark,None,0,365,365,365,,None,0,,,002,S003,2022_May_26_1434,DecoderConst_fMRI,59.94988815596704,
6_2_10.png,worm,right,0,366,366,366,,None,0,,,002,S003,2022_May_26_1434,DecoderConst_fMRI,59.94988815596704,
6_2_11.png,worm,None,0,367,367,367,,['right'],0,[0.00018405914306640625],,002,S003,2022_May_26_1434,DecoderConst_fMRI,59.94988815596704,
3_2_13.png,cockroach,right,0,368,368,368,,None,0,,,002,S003,2022_May_26_1434,DecoderConst_fMRI,59.94988815596704,
3_2_14.png,cockroach,None,0,369,369,369,,['right'],0,[0.00011181831359863281],,002,S003,2022_May_26_1434,DecoderConst_fMRI,59.94988815596704,
3_2_15.png,cockroach,None,0,370,370,370,,None,0,,,002,S003,2022_May_26_1434,DecoderConst_fMRI,59.94988815596704,
13_2_4.png,dog,right,0,371,371,371,,None,0,,,002,S003,2022_May_26_1434,DecoderConst_fMRI,59.94988815596704,
13_2_5.png,dog,None,0,372,372,372,,['right'],0,[0.00013399124145507812],,002,S003,2022_May_26_1434,DecoderConst_fMRI,59.94988815596704,
7_2_12.png,bee,right,0,373,373,373,,None,0,,,002,S003,2022_May_26_1434,DecoderConst_fMRI,59.94988815596704,
7_2_13.png,bee,None,0,374,374,374,,['right'],0,[0.00011491775512695312],,002,S003,2022_May_26_1434,DecoderConst_fMRI,59.94988815596704,
7_2_14.png,bee,None,0,375,375,375,,None,0,,,002,S003,2022_May_26_1434,DecoderConst_fMRI,59.94988815596704,
7_2_15.png,bee,None,0,376,376,376,,['right'],0,[0.00016307830810546875],,002,S003,2022_May_26_1434,DecoderConst_fMRI,59.94988815596704,
29_2_7.png,whale,right,0,377,377,377,,None,0,,,002,S003,2022_May_26_1434,DecoderConst_fMRI,59.94988815596704,
29_2_8.png,whale,None,0,378,378,378,,['right'],0,[0.0001990795135498047],,002,S003,2022_May_26_1434,DecoderConst_fMRI,59.94988815596704,
37_2_1.png,guitar,right,0,379,379,379,,None,0,,,002,S003,2022_May_26_1434,DecoderConst_fMRI,59.94988815596704,
37_2_2.png,guitar,None,0,380,380,380,,['right'],0,[0.00020313262939453125],,002,S003,2022_May_26_1434,DecoderConst_fMRI,59.94988815596704,
15_2_7.png,horse,right,0,381,381,381,,None,0,,,002,S003,2022_May_26_1434,DecoderConst_fMRI,59.94988815596704,
15_2_8.png,horse,None,0,382,382,382,,['right'],0,[0.00031280517578125],,002,S003,2022_May_26_1434,DecoderConst_fMRI,59.94988815596704,
15_2_9.png,horse,None,0,383,383,383,,None,0,,,002,S003,2022_May_26_1434,DecoderConst_fMRI,59.94988815596704,
15_2_10.png,horse,None,0,384,384,384,,None,0,,,002,S003,2022_May_26_1434,DecoderConst_fMRI,59.94988815596704,
15_2_11.png,horse,None,0,385,385,385,,None,0,,,002,S003,2022_May_26_1434,DecoderConst_fMRI,59.94988815596704,
15_2_12.png,horse,None,0,386,386,386,,None,0,,,002,S003,2022_May_26_1434,DecoderConst_fMRI,59.94988815596704,
28_2_7.png,giraffe,right,0,387,387,387,,None,0,,,002,S003,2022_May_26_1434,DecoderConst_fMRI,59.94988815596704,
28_2_8.png,giraffe,None,0,388,388,388,,['right'],0,[8.177757263183594e-05],,002,S003,2022_May_26_1434,DecoderConst_fMRI,59.94988815596704,
28_2_9.png,giraffe,None,0,389,389,389,,None,0,,,002,S003,2022_May_26_1434,DecoderConst_fMRI,59.94988815596704,
5_2_4.png,spider,right,0,390,390,390,,None,0,,,002,S003,2022_May_26_1434,DecoderConst_fMRI,59.94988815596704,
5_2_5.png,spider,None,0,391,391,391,,['right'],0,[0.00014901161193847656],,002,S003,2022_May_26_1434,DecoderConst_fMRI,59.94988815596704,
40_2_6.png,chair,right,0,392,392,392,,None,0,,,002,S003,2022_May_26_1434,DecoderConst_fMRI,59.94988815596704,
40_2_7.png,chair,None,0,393,393,393,,['right'],0,[0.0003058910369873047],,002,S003,2022_May_26_1434,DecoderConst_fMRI,59.94988815596704,
40_2_8.png,chair,None,0,394,394,394,,['right'],0,[0.0002739429473876953],,002,S003,2022_May_26_1434,DecoderConst_fMRI,59.94988815596704,
40_2_9.png,chair,None,0,395,395,395,,None,0,,,002,S003,2022_May_26_1434,DecoderConst_fMRI,59.94988815596704,
22_2_5.png,catterpilar,right,0,396,396,396,,None,0,,,002,S003,2022_May_26_1434,DecoderConst_fMRI,59.94988815596704,
22_2_6.png,catterpilar,None,0,397,397,397,,['right'],0,[0.00014710426330566406],,002,S003,2022_May_26_1434,DecoderConst_fMRI,59.94988815596704,
22_2_7.png,catterpilar,None,0,398,398,398,,None,0,,,002,S003,2022_May_26_1434,DecoderConst_fMRI,59.94988815596704,
22_2_8.png,catterpilar,None,0,399,399,399,,None,0,,,002,S003,2022_May_26_1434,DecoderConst_fMRI,59.94988815596704,
22_2_9.png,catterpilar,None,0,400,400,400,,None,0,,,002,S003,2022_May_26_1434,DecoderConst_fMRI,59.94988815596704,
22_2_10.png,catterpilar,None,0,401,401,401,,None,0,,,002,S003,2022_May_26_1434,DecoderConst_fMRI,59.94988815596704,
18_2_9.png,gecko,right,0,402,402,402,,None,0,,,002,S003,2022_May_26_1434,DecoderConst_fMRI,59.94988815596704,
18_2_10.png,gecko,None,0,403,403,403,,['right'],0,[7.987022399902344e-05],,002,S003,2022_May_26_1434,DecoderConst_fMRI,59.94988815596704,
18_2_11.png,gecko,None,0,404,404,404,,None,0,,,002,S003,2022_May_26_1434,DecoderConst_fMRI,59.94988815596704,
18_2_12.png,gecko,None,0,405,405,405,,None,0,,,002,S003,2022_May_26_1434,DecoderConst_fMRI,59.94988815596704,
27_2_13.png,rabbit,right,0,406,406,406,,None,0,,,002,S003,2022_May_26_1434,DecoderConst_fMRI,59.94988815596704,
27_2_14.png,rabbit,None,0,407,407,407,,['right'],0,[0.00011777877807617188],,002,S003,2022_May_26_1434,DecoderConst_fMRI,59.94988815596704,
27_2_15.png,rabbit,None,0,408,408,408,,None,0,,,002,S003,2022_May_26_1434,DecoderConst_fMRI,59.94988815596704,
10_2_3.png,bat,right,0,409,409,409,,None,0,,,002,S003,2022_May_26_1434,DecoderConst_fMRI,59.94988815596704,
10_2_4.png,bat,None,0,410,410,410,,['right'],0,[0.00021886825561523438],,002,S003,2022_May_26_1434,DecoderConst_fMRI,59.94988815596704,
10_2_5.png,bat,None,0,411,411,411,,None,0,,,002,S003,2022_May_26_1434,DecoderConst_fMRI,59.94988815596704,
25_2_4.png,guinea pig,right,0,412,412,412,,None,0,,,002,S003,2022_May_26_1434,DecoderConst_fMRI,59.94988815596704,
25_2_5.png,guinea pig,None,0,413,413,413,,['right'],0,[8.797645568847656e-05],,002,S003,2022_May_26_1434,DecoderConst_fMRI,59.94988815596704,
25_2_6.png,guinea pig,None,0,414,414,414,,None,0,,,002,S003,2022_May_26_1434,DecoderConst_fMRI,59.94988815596704,
25_2_7.png,guinea pig,None,0,415,415,415,,None,0,,,002,S003,2022_May_26_1434,DecoderConst_fMRI,59.94988815596704,
25_2_8.png,guinea pig,None,0,416,416,416,,None,0,,,002,S003,2022_May_26_1434,DecoderConst_fMRI,59.94988815596704,
25_2_9.png,guinea pig,None,0,417,417,417,,None,0,,,002,S003,2022_May_26_1434,DecoderConst_fMRI,59.94988815596704,
34_2_7.png,scissor,right,0,418,418,418,,None,0,,,002,S003,2022_May_26_1434,DecoderConst_fMRI,59.94988815596704,
34_2_8.png,scissor,None,0,419,419,419,,['right'],0,[9.799003601074219e-05],,002,S003,2022_May_26_1434,DecoderConst_fMRI,59.94988815596704,
34_2_9.png,scissor,None,0,420,420,420,,None,0,,,002,S003,2022_May_26_1434,DecoderConst_fMRI,59.94988815596704,
40_2_3.png,chair,right,0,421,421,421,,None,0,,,002,S003,2022_May_26_1434,DecoderConst_fMRI,59.94988815596704,
40_2_4.png,chair,None,0,422,422,422,,['right'],0,[0.0001468658447265625],,002,S003,2022_May_26_1434,DecoderConst_fMRI,59.94988815596704,
40_2_5.png,chair,None,0,423,423,423,,None,0,,,002,S003,2022_May_26_1434,DecoderConst_fMRI,59.94988815596704,
37_2_3.png,guitar,right,0,424,424,424,,['right'],0,[0.00010895729064941406],,002,S003,2022_May_26_1434,DecoderConst_fMRI,59.94988815596704,
37_2_4.png,guitar,None,0,425,425,425,,['right'],0,[0.000125885009765625],,002,S003,2022_May_26_1434,DecoderConst_fMRI,59.94988815596704,
37_2_5.png,guitar,None,0,426,426,426,,None,0,,,002,S003,2022_May_26_1434,DecoderConst_fMRI,59.94988815596704,
37_2_6.png,guitar,None,0,427,427,427,,None,0,,,002,S003,2022_May_26_1434,DecoderConst_fMRI,59.94988815596704,
32_2_4.png,car,right,0,428,428,428,,None,0,,,002,S003,2022_May_26_1434,DecoderConst_fMRI,59.94988815596704,
32_2_5.png,car,None,0,429,429,429,,['right'],0,[0.0001380443572998047],,002,S003,2022_May_26_1434,DecoderConst_fMRI,59.94988815596704,
32_2_6.png,car,None,0,430,430,430,,None,0,,,002,S003,2022_May_26_1434,DecoderConst_fMRI,59.94988815596704,
32_2_7.png,car,None,0,431,431,431,,None,0,,,002,S003,2022_May_26_1434,DecoderConst_fMRI,59.94988815596704,
32_2_8.png,car,None,0,432,432,432,,None,0,,,002,S003,2022_May_26_1434,DecoderConst_fMRI,59.94988815596704,
32_2_9.png,car,None,0,433,433,433,,None,0,,,002,S003,2022_May_26_1434,DecoderConst_fMRI,59.94988815596704,
33_2_5.png,bicycle,right,0,434,434,434,,None,0,,,002,S003,2022_May_26_1434,DecoderConst_fMRI,59.94988815596704,
33_2_6.png,bicycle,None,0,435,435,435,,['right'],0,[0.000102996826171875],,002,S003,2022_May_26_1434,DecoderConst_fMRI,59.94988815596704,
8_2_7.png,butterfly,right,0,436,436,436,,None,0,,,002,S003,2022_May_26_1434,DecoderConst_fMRI,59.94988815596704,
8_2_8.png,butterfly,None,0,437,437,437,,['right'],0,[0.00015306472778320312],,002,S003,2022_May_26_1434,DecoderConst_fMRI,59.94988815596704,
8_2_9.png,butterfly,None,0,438,438,438,,None,0,,,002,S003,2022_May_26_1434,DecoderConst_fMRI,59.94988815596704,
34_2_10.png,scissor,right,0,439,439,439,,None,0,,,002,S003,2022_May_26_1434,DecoderConst_fMRI,59.94988815596704,
34_2_11.png,scissor,None,0,440,440,440,,['right'],0,[0.0001201629638671875],,002,S003,2022_May_26_1434,DecoderConst_fMRI,59.94988815596704,
34_2_12.png,scissor,None,0,441,441,441,,None,0,,,002,S003,2022_May_26_1434,DecoderConst_fMRI,59.94988815596704,
34_2_13.png,scissor,None,0,442,442,442,,None,0,,,002,S003,2022_May_26_1434,DecoderConst_fMRI,59.94988815596704,
34_2_14.png,scissor,None,0,443,443,443,,None,0,,,002,S003,2022_May_26_1434,DecoderConst_fMRI,59.94988815596704,
34_2_15.png,scissor,None,0,444,444,444,,None,0,,,002,S003,2022_May_26_1434,DecoderConst_fMRI,59.94988815596704,
18_2_13.png,gecko,right,0,445,445,445,,None,0,,,002,S003,2022_May_26_1434,DecoderConst_fMRI,59.94988815596704,
18_2_14.png,gecko,None,0,446,446,446,,['right'],0,[0.00011181831359863281],,002,S003,2022_May_26_1434,DecoderConst_fMRI,59.94988815596704,
18_2_15.png,gecko,None,0,447,447,447,,None,0,,,002,S003,2022_May_26_1434,DecoderConst_fMRI,59.94988815596704,
1_2_5.png,snake,right,0,448,448,448,,None,0,,,002,S003,2022_May_26_1434,DecoderConst_fMRI,59.94988815596704,
1_2_6.png,snake,None,0,449,449,449,,['right'],0,[0.00010395050048828125],,002,S003,2022_May_26_1434,DecoderConst_fMRI,59.94988815596704,
7_2_4.png,bee,right,0,450,450,450,,None,0,,,002,S003,2022_May_26_1434,DecoderConst_fMRI,59.94988815596704,
7_2_5.png,bee,None,0,451,451,451,,None,0,,,002,S003,2022_May_26_1434,DecoderConst_fMRI,59.94988815596704,
7_2_6.png,bee,None,0,452,452,452,,['right'],0,[0.00013113021850585938],,002,S003,2022_May_26_1434,DecoderConst_fMRI,59.94988815596704,
7_2_7.png,bee,None,0,453,453,453,,None,0,,,002,S003,2022_May_26_1434,DecoderConst_fMRI,59.94988815596704,
7_2_8.png,bee,None,0,454,454,454,,None,0,,,002,S003,2022_May_26_1434,DecoderConst_fMRI,59.94988815596704,
7_2_9.png,bee,None,0,455,455,455,,None,0,,,002,S003,2022_May_26_1434,DecoderConst_fMRI,59.94988815596704,
5_2_12.png,spider,right,0,456,456,456,,None,0,,,002,S003,2022_May_26_1434,DecoderConst_fMRI,59.94988815596704,
5_2_13.png,spider,None,0,457,457,457,,['right'],0,[0.00014209747314453125],,002,S003,2022_May_26_1434,DecoderConst_fMRI,59.94988815596704,
5_2_14.png,spider,None,0,458,458,458,,None,0,,,002,S003,2022_May_26_1434,DecoderConst_fMRI,59.94988815596704,
5_2_15.png,spider,None,0,459,459,459,,None,0,,,002,S003,2022_May_26_1434,DecoderConst_fMRI,59.94988815596704,
2_2_10.png,frog,right,0,460,460,460,,None,0,,,002,S003,2022_May_26_1434,DecoderConst_fMRI,59.94988815596704,
2_2_11.png,frog,None,0,461,461,461,,['right'],0,[9.799003601074219e-05],,002,S003,2022_May_26_1434,DecoderConst_fMRI,59.94988815596704,
2_2_12.png,frog,None,0,462,462,462,,None,0,,,002,S003,2022_May_26_1434,DecoderConst_fMRI,59.94988815596704,
2_2_13.png,frog,None,0,463,463,463,,None,0,,,002,S003,2022_May_26_1434,DecoderConst_fMRI,59.94988815596704,
2_2_14.png,frog,None,0,464,464,464,,None,0,,,002,S003,2022_May_26_1434,DecoderConst_fMRI,59.94988815596704,
2_2_15.png,frog,None,0,465,465,465,,None,0,,,002,S003,2022_May_26_1434,DecoderConst_fMRI,59.94988815596704,
16_2_7.png,shark,right,0,466,466,466,,None,0,,,002,S003,2022_May_26_1434,DecoderConst_fMRI,59.94988815596704,
16_2_8.png,shark,None,0,467,467,467,,['right'],0,[0.00013899803161621094],,002,S003,2022_May_26_1434,DecoderConst_fMRI,59.94988815596704,
16_2_9.png,shark,None,0,468,468,468,,None,0,,,002,S003,2022_May_26_1434,DecoderConst_fMRI,59.94988815596704,
16_2_10.png,shark,None,0,469,469,469,,None,0,,,002,S003,2022_May_26_1434,DecoderConst_fMRI,59.94988815596704,
4_2_7.png,ants,right,0,470,470,470,,None,0,,,002,S003,2022_May_26_1434,DecoderConst_fMRI,59.94988815596704,
4_2_8.png,ants,None,0,471,471,471,,['right'],0,[0.00012993812561035156],,002,S003,2022_May_26_1434,DecoderConst_fMRI,59.94988815596704,
4_2_9.png,ants,None,0,472,472,472,,None,0,,,002,S003,2022_May_26_1434,DecoderConst_fMRI,59.94988815596704,
25_2_10.png,guinea pig,right,0,473,473,473,,None,0,,,002,S003,2022_May_26_1434,DecoderConst_fMRI,59.94988815596704,
25_2_11.png,guinea pig,None,0,474,474,474,,['right'],0,[0.00011205673217773438],,002,S003,2022_May_26_1434,DecoderConst_fMRI,59.94988815596704,
6_2_7.png,worm,right,0,475,475,475,,None,0,,,002,S003,2022_May_26_1434,DecoderConst_fMRI,59.94988815596704,
6_2_8.png,worm,None,0,476,476,476,,['right'],0,[0.0001289844512939453],,002,S003,2022_May_26_1434,DecoderConst_fMRI,59.94988815596704,
6_2_9.png,worm,None,0,477,477,477,,None,0,,,002,S003,2022_May_26_1434,DecoderConst_fMRI,59.94988815596704,
10_2_6.png,bat,right,0,478,478,478,,None,0,,,002,S003,2022_May_26_1434,DecoderConst_fMRI,59.94988815596704,
10_2_7.png,bat,None,0,479,479,479,,['right'],0,[0.0001270771026611328],,002,S003,2022_May_26_1434,DecoderConst_fMRI,59.94988815596704,
10_2_8.png,bat,None,0,480,480,480,,None,0,,,002,S003,2022_May_26_1434,DecoderConst_fMRI,59.94988815596704,
10_2_9.png,bat,None,0,481,481,481,,None,0,,,002,S003,2022_May_26_1434,DecoderConst_fMRI,59.94988815596704,
10_2_10.png,bat,None,0,482,482,482,,None,0,,,002,S003,2022_May_26_1434,DecoderConst_fMRI,59.94988815596704,
10_2_11.png,bat,None,0,483,483,483,,None,0,,,002,S003,2022_May_26_1434,DecoderConst_fMRI,59.94988815596704,
29_2_9.png,whale,right,0,484,484,484,,None,0,,,002,S003,2022_May_26_1434,DecoderConst_fMRI,59.94988815596704,
29_2_10.png,whale,None,0,485,485,485,,['right'],0,[0.0001499652862548828],,002,S003,2022_May_26_1434,DecoderConst_fMRI,59.94988815596704,
29_2_11.png,whale,None,0,486,486,486,,None,0,,,002,S003,2022_May_26_1434,DecoderConst_fMRI,59.94988815596704,
29_2_12.png,whale,None,0,487,487,487,,None,0,,,002,S003,2022_May_26_1434,DecoderConst_fMRI,59.94988815596704,
13_2_6.png,dog,right,0,488,488,488,,None,0,,,002,S003,2022_May_26_1434,DecoderConst_fMRI,59.94988815596704,
13_2_7.png,dog,None,0,489,489,489,,['right'],0,[0.00011706352233886719],,002,S003,2022_May_26_1434,DecoderConst_fMRI,59.94988815596704,
13_2_8.png,dog,None,0,490,490,490,,None,0,,,002,S003,2022_May_26_1434,DecoderConst_fMRI,59.94988815596704,
13_2_9.png,dog,None,0,491,491,491,,None,0,,,002,S003,2022_May_26_1434,DecoderConst_fMRI,59.94988815596704,
22_2_11.png,catterpilar,right,0,492,492,492,,None,0,,,002,S003,2022_May_26_1434,DecoderConst_fMRI,59.94988815596704,
22_2_12.png,catterpilar,None,0,493,493,493,,['right'],0,[9.918212890625e-05],,002,S003,2022_May_26_1434,DecoderConst_fMRI,59.94988815596704,
22_2_13.png,catterpilar,None,0,494,494,494,,None,0,,,002,S003,2022_May_26_1434,DecoderConst_fMRI,59.94988815596704,
28_2_10.png,giraffe,right,0,495,495,495,,['right'],0,[0.00011897087097167969],,002,S003,2022_May_26_1434,DecoderConst_fMRI,59.94988815596704,
28_2_11.png,giraffe,None,0,496,496,496,,['right'],0,[0.0001201629638671875],,002,S003,2022_May_26_1434,DecoderConst_fMRI,59.94988815596704,
28_2_12.png,giraffe,None,0,497,497,497,,None,0,,,002,S003,2022_May_26_1434,DecoderConst_fMRI,59.94988815596704,
28_2_13.png,giraffe,None,0,498,498,498,,None,0,,,002,S003,2022_May_26_1434,DecoderConst_fMRI,59.94988815596704,
28_2_14.png,giraffe,None,0,499,499,499,,None,0,,,002,S003,2022_May_26_1434,DecoderConst_fMRI,59.94988815596704,
28_2_15.png,giraffe,None,0,500,500,500,,None,0,,,002,S003,2022_May_26_1434,DecoderConst_fMRI,59.94988815596704,
37_2_7.png,guitar,right,0,501,501,501,,None,0,,,002,S003,2022_May_26_1434,DecoderConst_fMRI,59.94988815596704,
37_2_8.png,guitar,None,0,502,502,502,,['right'],0,[0.00020003318786621094],,002,S003,2022_May_26_1434,DecoderConst_fMRI,59.94988815596704,
37_2_9.png,guitar,None,0,503,503,503,,None,0,,,002,S003,2022_May_26_1434,DecoderConst_fMRI,59.94988815596704,
18_2_7.png,gecko,right,0,504,504,504,,None,0,,,002,S003,2022_May_26_1434,DecoderConst_fMRI,59.94988815596704,
18_2_8.png,gecko,None,0,505,505,505,,['right'],0,[0.000102996826171875],,002,S003,2022_May_26_1434,DecoderConst_fMRI,59.94988815596704,
34_2_3.png,scissor,right,0,506,506,506,,None,0,,,002,S003,2022_May_26_1434,DecoderConst_fMRI,59.94988815596704,
34_2_4.png,scissor,None,0,507,507,507,,['right'],0,[0.00011706352233886719],,002,S003,2022_May_26_1434,DecoderConst_fMRI,59.94988815596704,
34_2_5.png,scissor,None,0,508,508,508,,None,0,,,002,S003,2022_May_26_1434,DecoderConst_fMRI,59.94988815596704,
34_2_6.png,scissor,None,0,509,509,509,,None,0,,,002,S003,2022_May_26_1434,DecoderConst_fMRI,59.94988815596704,
40_2_10.png,chair,right,0,510,510,510,,None,0,,,002,S003,2022_May_26_1434,DecoderConst_fMRI,59.94988815596704,
40_2_11.png,chair,None,0,511,511,511,,['right'],0,[0.00015306472778320312],,002,S003,2022_May_26_1434,DecoderConst_fMRI,59.94988815596704,
40_2_12.png,chair,None,0,512,512,512,,None,0,,,002,S003,2022_May_26_1434,DecoderConst_fMRI,59.94988815596704,
40_2_13.png,chair,None,0,513,513,513,,None,0,,,002,S003,2022_May_26_1434,DecoderConst_fMRI,59.94988815596704,
40_2_14.png,chair,None,0,514,514,514,,None,0,,,002,S003,2022_May_26_1434,DecoderConst_fMRI,59.94988815596704,
40_2_15.png,chair,None,0,515,515,515,,None,0,,,002,S003,2022_May_26_1434,DecoderConst_fMRI,59.94988815596704,
10_2_1.png,bat,right,0,516,516,516,,None,0,,,002,S003,2022_May_26_1434,DecoderConst_fMRI,59.94988815596704,
10_2_2.png,bat,None,0,517,517,517,,['right'],0,[0.0001239776611328125],,002,S003,2022_May_26_1434,DecoderConst_fMRI,59.94988815596704,
25_2_12.png,guinea pig,right,0,518,518,518,,None,0,,,002,S003,2022_May_26_1434,DecoderConst_fMRI,59.94988815596704,
25_2_13.png,guinea pig,None,0,519,519,519,,['right'],0,[0.0001690387725830078],,002,S003,2022_May_26_1434,DecoderConst_fMRI,59.94988815596704,
25_2_14.png,guinea pig,None,0,520,520,520,,None,0,,,002,S003,2022_May_26_1434,DecoderConst_fMRI,59.94988815596704,
25_2_15.png,guinea pig,None,0,521,521,521,,['right'],0,[0.0001010894775390625],,002,S003,2022_May_26_1434,DecoderConst_fMRI,59.94988815596704,
34_2_1.png,scissor,right,0,522,522,522,,None,0,,,002,S003,2022_May_26_1434,DecoderConst_fMRI,59.94988815596704,
34_2_2.png,scissor,None,0,523,523,523,,['right'],0,[0.00010895729064941406],,002,S003,2022_May_26_1434,DecoderConst_fMRI,59.94988815596704,
25_2_1.png,guinea pig,right,0,524,524,524,,['right'],0,[0.00028896331787109375],,002,S003,2022_May_26_1434,DecoderConst_fMRI,59.94988815596704,
25_2_2.png,guinea pig,None,0,525,525,525,,None,0,,,002,S003,2022_May_26_1434,DecoderConst_fMRI,59.94988815596704,
25_2_3.png,guinea pig,None,0,526,526,526,,None,0,,,002,S003,2022_May_26_1434,DecoderConst_fMRI,59.94988815596704,
10_2_12.png,bat,right,0,527,527,527,,None,0,,,002,S003,2022_May_26_1434,DecoderConst_fMRI,59.94988815596704,
10_2_13.png,bat,None,0,528,528,528,,['right'],0,[0.0001590251922607422],,002,S003,2022_May_26_1434,DecoderConst_fMRI,59.94988815596704,
10_2_14.png,bat,None,0,529,529,529,,None,0,,,002,S003,2022_May_26_1434,DecoderConst_fMRI,59.94988815596704,
10_2_15.png,bat,None,0,530,530,530,,None,0,,,002,S003,2022_May_26_1434,DecoderConst_fMRI,59.94988815596704,
40_2_1.png,chair,right,0,531,531,531,,None,0,,,002,S003,2022_May_26_1434,DecoderConst_fMRI,59.94988815596704,
40_2_2.png,chair,None,0,532,532,532,,['right'],0,[9.894371032714844e-05],,002,S003,2022_May_26_1434,DecoderConst_fMRI,59.94988815596704,
18_2_1.png,gecko,right,0,533,533,533,,None,0,,,002,S003,2022_May_26_1434,DecoderConst_fMRI,59.94988815596704,
18_2_2.png,gecko,None,0,534,534,534,,['right'],0,[0.00013518333435058594],,002,S003,2022_May_26_1434,DecoderConst_fMRI,59.94988815596704,
18_2_3.png,gecko,None,0,535,535,535,,None,0,,,002,S003,2022_May_26_1434,DecoderConst_fMRI,59.94988815596704,
18_2_4.png,gecko,None,0,536,536,536,,None,0,,,002,S003,2022_May_26_1434,DecoderConst_fMRI,59.94988815596704,
18_2_5.png,gecko,None,0,537,537,537,,None,0,,,002,S003,2022_May_26_1434,DecoderConst_fMRI,59.94988815596704,
18_2_6.png,gecko,None,0,538,538,538,,None,0,,,002,S003,2022_May_26_1434,DecoderConst_fMRI,59.94988815596704,
37_2_10.png,guitar,right,0,539,539,539,,None,0,,,002,S003,2022_May_26_1434,DecoderConst_fMRI,59.94988815596704,
37_2_11.png,guitar,None,0,540,540,540,,['right'],0,[0.0001552104949951172],,002,S003,2022_May_26_1434,DecoderConst_fMRI,59.94988815596704,
37_2_12.png,guitar,None,0,541,541,541,,None,0,,,002,S003,2022_May_26_1434,DecoderConst_fMRI,59.94988815596704,
37_2_13.png,guitar,None,0,542,542,542,,None,0,,,002,S003,2022_May_26_1434,DecoderConst_fMRI,59.94988815596704,
37_2_14.png,guitar,None,0,543,543,543,,None,0,,,002,S003,2022_May_26_1434,DecoderConst_fMRI,59.94988815596704,
37_2_15.png,guitar,None,0,544,544,544,,None,0,,,002,S003,2022_May_26_1434,DecoderConst_fMRI,59.94988815596704,
7_2_1.png,bee,right,0,545,545,545,,None,0,,,002,S003,2022_May_26_1434,DecoderConst_fMRI,59.94988815596704,
7_2_2.png,bee,None,0,546,546,546,,['right'],0,[0.00011014938354492188],,002,S003,2022_May_26_1434,DecoderConst_fMRI,59.94988815596704,
7_2_3.png,bee,None,0,547,547,547,,None,0,,,002,S003,2022_May_26_1434,DecoderConst_fMRI,59.94988815596704,
32_2_1.png,car,right,0,548,548,548,,['right'],0,[0.00016188621520996094],,002,S003,2022_May_26_1434,DecoderConst_fMRI,59.94988815596704,
32_2_2.png,car,None,0,549,549,549,,['right'],0,[8.702278137207031e-05],,002,S003,2022_May_26_1434,DecoderConst_fMRI,59.94988815596704,
32_2_3.png,car,None,0,550,550,550,,None,0,,,002,S003,2022_May_26_1434,DecoderConst_fMRI,59.94988815596704,
8_2_1.png,butterfly,right,0,551,551,551,,['right'],0,[0.00011086463928222656],,002,S003,2022_May_26_1434,DecoderConst_fMRI,59.94988815596704,
8_2_2.png,butterfly,None,0,552,552,552,,None,0,,,002,S003,2022_May_26_1434,DecoderConst_fMRI,59.94988815596704,
8_2_3.png,butterfly,None,0,553,553,553,,None,0,,,002,S003,2022_May_26_1434,DecoderConst_fMRI,59.94988815596704,
8_2_4.png,butterfly,None,0,554,554,554,,None,0,,,002,S003,2022_May_26_1434,DecoderConst_fMRI,59.94988815596704,
8_2_5.png,butterfly,None,0,555,555,555,,None,0,,,002,S003,2022_May_26_1434,DecoderConst_fMRI,59.94988815596704,
8_2_6.png,butterfly,None,0,556,556,556,,None,0,,,002,S003,2022_May_26_1434,DecoderConst_fMRI,59.94988815596704,
33_2_1.png,bicycle,right,0,557,557,557,,None,0,,,002,S003,2022_May_26_1434,DecoderConst_fMRI,59.94988815596704,
33_2_2.png,bicycle,None,0,558,558,558,,['right'],0,[8.511543273925781e-05],,002,S003,2022_May_26_1434,DecoderConst_fMRI,59.94988815596704,
33_2_3.png,bicycle,None,0,559,559,559,,None,0,,,002,S003,2022_May_26_1434,DecoderConst_fMRI,59.94988815596704,
33_2_4.png,bicycle,None,0,560,560,560,,None,0,,,002,S003,2022_May_26_1434,DecoderConst_fMRI,59.94988815596704,
1_2_1.png,snake,right,0,561,561,561,,None,0,,,002,S003,2022_May_26_1434,DecoderConst_fMRI,59.94988815596704,
1_2_2.png,snake,None,0,562,562,562,,['right'],0,[0.00017404556274414062],,002,S003,2022_May_26_1434,DecoderConst_fMRI,59.94988815596704,
1_2_3.png,snake,None,0,563,563,563,,None,0,,,002,S003,2022_May_26_1434,DecoderConst_fMRI,59.94988815596704,
1_2_4.png,snake,None,0,564,564,564,,None,0,,,002,S003,2022_May_26_1434,DecoderConst_fMRI,59.94988815596704,
5_2_1.png,spider,right,0,565,565,565,,None,0,,,002,S003,2022_May_26_1434,DecoderConst_fMRI,59.94988815596704,
5_2_2.png,spider,None,0,566,566,566,,['right'],0,[0.0001327991485595703],,002,S003,2022_May_26_1434,DecoderConst_fMRI,59.94988815596704,
5_2_3.png,spider,None,0,567,567,567,,None,0,,,002,S003,2022_May_26_1434,DecoderConst_fMRI,59.94988815596704,
2_2_7.png,frog,right,0,568,568,568,,None,0,,,002,S003,2022_May_26_1434,DecoderConst_fMRI,59.94988815596704,
2_2_8.png,frog,None,0,569,569,569,,['right'],0,[8.58306884765625e-05],,002,S003,2022_May_26_1434,DecoderConst_fMRI,59.94988815596704,
2_2_9.png,frog,None,0,570,570,570,,None,0,,,002,S003,2022_May_26_1434,DecoderConst_fMRI,59.94988815596704,
16_2_11.png,shark,right,0,571,571,571,,None,0,,,002,S003,2022_May_26_1434,DecoderConst_fMRI,59.94988815596704,
16_2_12.png,shark,None,0,572,572,572,,['right'],0,[0.0001659393310546875],,002,S003,2022_May_26_1434,DecoderConst_fMRI,59.94988815596704,
4_2_10.png,ants,right,0,573,573,573,,None,0,,,002,S003,2022_May_26_1434,DecoderConst_fMRI,59.94988815596704,
4_2_11.png,ants,None,0,574,574,574,,['right'],0,[0.00016808509826660156],,002,S003,2022_May_26_1434,DecoderConst_fMRI,59.94988815596704,
4_2_12.png,ants,None,0,575,575,575,,None,0,,,002,S003,2022_May_26_1434,DecoderConst_fMRI,59.94988815596704,
4_2_13.png,ants,None,0,576,576,576,,None,0,,,002,S003,2022_May_26_1434,DecoderConst_fMRI,59.94988815596704,
4_2_14.png,ants,None,0,577,577,577,,None,0,,,002,S003,2022_May_26_1434,DecoderConst_fMRI,59.94988815596704,
4_2_15.png,ants,None,0,578,578,578,,None,0,,,002,S003,2022_May_26_1434,DecoderConst_fMRI,59.94988815596704,
22_2_14.png,catterpilar,right,0,579,579,579,,None,0,,,002,S003,2022_May_26_1434,DecoderConst_fMRI,59.94988815596704,
22_2_15.png,catterpilar,None,0,580,580,580,,['right'],0,[9.608268737792969e-05],,002,S003,2022_May_26_1434,DecoderConst_fMRI,59.94988815596704,
28_2_1.png,giraffe,right,0,581,581,581,,None,0,,,002,S003,2022_May_26_1434,DecoderConst_fMRI,59.94988815596704,
28_2_2.png,giraffe,None,0,582,582,582,,['right'],0,[0.00014901161193847656],,002,S003,2022_May_26_1434,DecoderConst_fMRI,59.94988815596704,
28_2_3.png,giraffe,None,0,583,583,583,,None,0,,,002,S003,2022_May_26_1434,DecoderConst_fMRI,59.94988815596704,
28_2_4.png,giraffe,None,0,584,584,584,,None,0,,,002,S003,2022_May_26_1434,DecoderConst_fMRI,59.94988815596704,
6_2_1.png,worm,right,0,585,585,585,,None,0,,,002,S003,2022_May_26_1434,DecoderConst_fMRI,59.94988815596704,
6_2_2.png,worm,None,0,586,586,586,,['right'],0,[0.00013589859008789062],,002,S003,2022_May_26_1434,DecoderConst_fMRI,59.94988815596704,
6_2_3.png,worm,None,0,587,587,587,,None,0,,,002,S003,2022_May_26_1434,DecoderConst_fMRI,59.94988815596704,
6_2_4.png,worm,None,0,588,588,588,,None,0,,,002,S003,2022_May_26_1434,DecoderConst_fMRI,59.94988815596704,
6_2_5.png,worm,None,0,589,589,589,,None,0,,,002,S003,2022_May_26_1434,DecoderConst_fMRI,59.94988815596704,
6_2_6.png,worm,None,0,590,590,590,,None,0,,,002,S003,2022_May_26_1434,DecoderConst_fMRI,59.94988815596704,
29_2_13.png,whale,right,0,591,591,591,,None,0,,,002,S003,2022_May_26_1434,DecoderConst_fMRI,59.94988815596704,
29_2_14.png,whale,None,0,592,592,592,,['right'],0,[0.00021505355834960938],,002,S003,2022_May_26_1434,DecoderConst_fMRI,59.94988815596704,
29_2_15.png,whale,None,0,593,593,593,,None,0,,,002,S003,2022_May_26_1434,DecoderConst_fMRI,59.94988815596704,
13_2_10.png,dog,right,0,594,594,594,,None,0,,,002,S003,2022_May_26_1434,DecoderConst_fMRI,59.94988815596704,
13_2_11.png,dog,None,0,595,595,595,,['right'],0,[8.58306884765625e-05],,002,S003,2022_May_26_1434,DecoderConst_fMRI,59.94988815596704,
13_2_12.png,dog,None,0,596,596,596,,None,0,,,002,S003,2022_May_26_1434,DecoderConst_fMRI,59.94988815596704,
13_2_13.png,dog,None,0,597,597,597,,None,0,,,002,S003,2022_May_26_1434,DecoderConst_fMRI,59.94988815596704,
13_2_14.png,dog,None,0,598,598,598,,None,0,,,002,S003,2022_May_26_1434,DecoderConst_fMRI,59.94988815596704,
13_2_15.png,dog,None,0,599,599,599,,None,0,,,002,S003,2022_May_26_1434,DecoderConst_fMRI,59.94988815596704,
,,,,,,,,,,,None,002,S003,2022_May_26_1434,DecoderConst_fMRI,59.94988815596704,
