Stimuli,Condition,corrAns,trials.thisRepN,trials.thisTrialN,trials.thisN,trials.thisIndex,key_resp_3.keys,key_resp_4.keys,key_resp_4.corr,key_resp_4.rt,key_resp_2.keys,session,participant,date,exp_name,frameRate,
,,,,,,,None,,,,,003,S004,2022_May_26_1525,DecoderConst_fMRI,59.95417283103554,
15_3_1.png,horse,None,0,0,0,0,,None,0,,,003,S004,2022_May_26_1525,DecoderConst_fMRI,59.95417283103554,
15_3_2.png,horse,None,0,1,1,1,,None,0,,,003,S004,2022_May_26_1525,DecoderConst_fMRI,59.95417283103554,
15_3_3.png,horse,None,0,2,2,2,,['t'],0,[0.00013589859008789062],,003,S004,2022_May_26_1525,DecoderConst_fMRI,59.95417283103554,
33_3_1.png,bicycle,right,0,3,3,3,,None,0,,,003,S004,2022_May_26_1525,DecoderConst_fMRI,59.95417283103554,
33_3_2.png,bicycle,None,0,4,4,4,,"['right', 't']",0,[0.00012183189392089844],,003,S004,2022_May_26_1525,DecoderConst_fMRI,59.95417283103554,
5_3_1.png,spider,right,0,5,5,5,,None,0,,,003,S004,2022_May_26_1525,DecoderConst_fMRI,59.95417283103554,
5_3_2.png,spider,None,0,6,6,6,,['t'],0,[0.02253103256225586],,003,S004,2022_May_26_1525,DecoderConst_fMRI,59.95417283103554,
5_3_3.png,spider,None,0,7,7,7,,['right'],0,[0.0001220703125],,003,S004,2022_May_26_1525,DecoderConst_fMRI,59.95417283103554,
16_3_1.png,shark,right,0,8,8,8,,None,0,,,003,S004,2022_May_26_1525,DecoderConst_fMRI,59.95417283103554,
16_3_2.png,shark,None,0,9,9,9,,['right'],0,[0.00013685226440429688],,003,S004,2022_May_26_1525,DecoderConst_fMRI,59.95417283103554,
16_3_3.png,shark,None,0,10,10,10,,None,0,,,003,S004,2022_May_26_1525,DecoderConst_fMRI,59.95417283103554,
16_3_4.png,shark,None,0,11,11,11,,None,0,,,003,S004,2022_May_26_1525,DecoderConst_fMRI,59.95417283103554,
16_3_5.png,shark,None,0,12,12,12,,None,0,,,003,S004,2022_May_26_1525,DecoderConst_fMRI,59.95417283103554,
16_3_6.png,shark,None,0,13,13,13,,None,0,,,003,S004,2022_May_26_1525,DecoderConst_fMRI,59.95417283103554,
31_3_1.png,airplane,right,0,14,14,14,,None,0,,,003,S004,2022_May_26_1525,DecoderConst_fMRI,59.95417283103554,
31_3_2.png,airplane,None,0,15,15,15,,['right'],0,[0.00013494491577148438],,003,S004,2022_May_26_1525,DecoderConst_fMRI,59.95417283103554,
31_3_3.png,airplane,None,0,16,16,16,,None,0,,,003,S004,2022_May_26_1525,DecoderConst_fMRI,59.95417283103554,
31_3_4.png,airplane,None,0,17,17,17,,None,0,,,003,S004,2022_May_26_1525,DecoderConst_fMRI,59.95417283103554,
28_3_1.png,giraffe,right,0,18,18,18,,None,0,,,003,S004,2022_May_26_1525,DecoderConst_fMRI,59.95417283103554,
28_3_2.png,giraffe,None,0,19,19,19,,['right'],0,[0.00015306472778320312],,003,S004,2022_May_26_1525,DecoderConst_fMRI,59.95417283103554,
28_3_3.png,giraffe,None,0,20,20,20,,None,0,,,003,S004,2022_May_26_1525,DecoderConst_fMRI,59.95417283103554,
28_3_4.png,giraffe,None,0,21,21,21,,None,0,,,003,S004,2022_May_26_1525,DecoderConst_fMRI,59.95417283103554,
3_3_1.png,cockroach,right,0,22,22,22,,None,0,,,003,S004,2022_May_26_1525,DecoderConst_fMRI,59.95417283103554,
3_3_2.png,cockroach,None,0,23,23,23,,['right'],0,[0.00011992454528808594],,003,S004,2022_May_26_1525,DecoderConst_fMRI,59.95417283103554,
25_3_1.png,guinea pig,right,0,24,24,24,,None,0,,,003,S004,2022_May_26_1525,DecoderConst_fMRI,59.95417283103554,
25_3_2.png,guinea pig,None,0,25,25,25,,['right'],0,[0.00017213821411132812],,003,S004,2022_May_26_1525,DecoderConst_fMRI,59.95417283103554,
25_3_3.png,guinea pig,None,0,26,26,26,,None,0,,,003,S004,2022_May_26_1525,DecoderConst_fMRI,59.95417283103554,
25_3_4.png,guinea pig,None,0,27,27,27,,None,0,,,003,S004,2022_May_26_1525,DecoderConst_fMRI,59.95417283103554,
18_3_1.png,gecko,right,0,28,28,28,,None,0,,,003,S004,2022_May_26_1525,DecoderConst_fMRI,59.95417283103554,
18_3_2.png,gecko,None,0,29,29,29,,['right'],0,[0.00011801719665527344],,003,S004,2022_May_26_1525,DecoderConst_fMRI,59.95417283103554,
18_3_3.png,gecko,None,0,30,30,30,,None,0,,,003,S004,2022_May_26_1525,DecoderConst_fMRI,59.95417283103554,
18_3_4.png,gecko,None,0,31,31,31,,None,0,,,003,S004,2022_May_26_1525,DecoderConst_fMRI,59.95417283103554,
38_3_1.png,cellphone,right,0,32,32,32,,None,0,,,003,S004,2022_May_26_1525,DecoderConst_fMRI,59.95417283103554,
38_3_2.png,cellphone,None,0,33,33,33,,['right'],0,[0.00011515617370605469],,003,S004,2022_May_26_1525,DecoderConst_fMRI,59.95417283103554,
38_3_3.png,cellphone,None,0,34,34,34,,None,0,,,003,S004,2022_May_26_1525,DecoderConst_fMRI,59.95417283103554,
38_3_4.png,cellphone,None,0,35,35,35,,None,0,,,003,S004,2022_May_26_1525,DecoderConst_fMRI,59.95417283103554,
38_3_5.png,cellphone,None,0,36,36,36,,None,0,,,003,S004,2022_May_26_1525,DecoderConst_fMRI,59.95417283103554,
38_3_6.png,cellphone,None,0,37,37,37,,None,0,,,003,S004,2022_May_26_1525,DecoderConst_fMRI,59.95417283103554,
36_3_1.png,key,right,0,38,38,38,,None,0,,,003,S004,2022_May_26_1525,DecoderConst_fMRI,59.95417283103554,
36_3_2.png,key,None,0,39,39,39,,['right'],0,[0.00010895729064941406],,003,S004,2022_May_26_1525,DecoderConst_fMRI,59.95417283103554,
36_3_3.png,key,None,0,40,40,40,,None,0,,,003,S004,2022_May_26_1525,DecoderConst_fMRI,59.95417283103554,
36_3_4.png,key,None,0,41,41,41,,['right'],0,[0.0001728534698486328],,003,S004,2022_May_26_1525,DecoderConst_fMRI,59.95417283103554,
14_3_1.png,cat,None,0,42,42,42,,None,0,,,003,S004,2022_May_26_1525,DecoderConst_fMRI,59.95417283103554,
14_3_2.png,cat,None,0,43,43,43,,['right'],0,[0.00011992454528808594],,003,S004,2022_May_26_1525,DecoderConst_fMRI,59.95417283103554,
14_3_3.png,cat,None,0,44,44,44,,None,0,,,003,S004,2022_May_26_1525,DecoderConst_fMRI,59.95417283103554,
12_3_1.png,mouse,right,0,45,45,45,,None,0,,,003,S004,2022_May_26_1525,DecoderConst_fMRI,59.95417283103554,
12_3_2.png,mouse,None,0,46,46,46,,['right'],0,[0.00011897087097167969],,003,S004,2022_May_26_1525,DecoderConst_fMRI,59.95417283103554,
24_3_1.png,peacock,right,0,47,47,47,,None,0,,,003,S004,2022_May_26_1525,DecoderConst_fMRI,59.95417283103554,
24_3_2.png,peacock,None,0,48,48,48,,['right'],0,[0.00018596649169921875],,003,S004,2022_May_26_1525,DecoderConst_fMRI,59.95417283103554,
24_3_3.png,peacock,None,0,49,49,49,,None,0,,,003,S004,2022_May_26_1525,DecoderConst_fMRI,59.95417283103554,
6_3_1.png,worm,right,0,50,50,50,,None,0,,,003,S004,2022_May_26_1525,DecoderConst_fMRI,59.95417283103554,
6_3_2.png,worm,None,0,51,51,51,,['right'],0,[0.00014710426330566406],,003,S004,2022_May_26_1525,DecoderConst_fMRI,59.95417283103554,
6_3_3.png,worm,None,0,52,52,52,,None,0,,,003,S004,2022_May_26_1525,DecoderConst_fMRI,59.95417283103554,
6_3_4.png,worm,None,0,53,53,53,,None,0,,,003,S004,2022_May_26_1525,DecoderConst_fMRI,59.95417283103554,
7_3_1.png,bee,None,0,54,54,54,,None,0,,,003,S004,2022_May_26_1525,DecoderConst_fMRI,59.95417283103554,
7_3_2.png,bee,None,0,55,55,55,,['right'],0,[0.00013589859008789062],,003,S004,2022_May_26_1525,DecoderConst_fMRI,59.95417283103554,
37_3_4.png,guitar,right,0,56,56,56,,None,0,,,003,S004,2022_May_26_1525,DecoderConst_fMRI,59.95417283103554,
37_3_5.png,guitar,None,0,57,57,57,,['right'],0,[0.00015020370483398438],,003,S004,2022_May_26_1525,DecoderConst_fMRI,59.95417283103554,
37_3_6.png,guitar,None,0,58,58,58,,None,0,,,003,S004,2022_May_26_1525,DecoderConst_fMRI,59.95417283103554,
37_3_7.png,guitar,None,0,59,59,59,,None,0,,,003,S004,2022_May_26_1525,DecoderConst_fMRI,59.95417283103554,
1_3_1.png,snake,right,0,60,60,60,,None,0,,,003,S004,2022_May_26_1525,DecoderConst_fMRI,59.95417283103554,
1_3_2.png,snake,None,0,61,61,61,,['right'],0,[0.00012803077697753906],,003,S004,2022_May_26_1525,DecoderConst_fMRI,59.95417283103554,
1_3_3.png,snake,None,0,62,62,62,,None,0,,,003,S004,2022_May_26_1525,DecoderConst_fMRI,59.95417283103554,
1_3_4.png,snake,None,0,63,63,63,,None,0,,,003,S004,2022_May_26_1525,DecoderConst_fMRI,59.95417283103554,
1_3_5.png,snake,None,0,64,64,64,,None,0,,,003,S004,2022_May_26_1525,DecoderConst_fMRI,59.95417283103554,
1_3_6.png,snake,None,0,65,65,65,,None,0,,,003,S004,2022_May_26_1525,DecoderConst_fMRI,59.95417283103554,
19_3_7.png,turtle,right,0,66,66,66,,None,0,,,003,S004,2022_May_26_1525,DecoderConst_fMRI,59.95417283103554,
19_3_8.png,turtle,None,0,67,67,67,,['right'],0,[0.0001659393310546875],,003,S004,2022_May_26_1525,DecoderConst_fMRI,59.95417283103554,
19_3_9.png,turtle,None,0,68,68,68,,None,0,,,003,S004,2022_May_26_1525,DecoderConst_fMRI,59.95417283103554,
9_3_1.png,bird,right,0,69,69,69,,None,0,,,003,S004,2022_May_26_1525,DecoderConst_fMRI,59.95417283103554,
9_3_2.png,bird,None,0,70,70,70,,['right'],0,[0.00012612342834472656],,003,S004,2022_May_26_1525,DecoderConst_fMRI,59.95417283103554,
9_3_3.png,bird,None,0,71,71,71,,None,0,,,003,S004,2022_May_26_1525,DecoderConst_fMRI,59.95417283103554,
9_3_4.png,bird,None,0,72,72,72,,None,0,,,003,S004,2022_May_26_1525,DecoderConst_fMRI,59.95417283103554,
9_3_5.png,bird,None,0,73,73,73,,None,0,,,003,S004,2022_May_26_1525,DecoderConst_fMRI,59.95417283103554,
9_3_6.png,bird,None,0,74,74,74,,None,0,,,003,S004,2022_May_26_1525,DecoderConst_fMRI,59.95417283103554,
19_3_10.png,turtle,right,0,75,75,75,,None,0,,,003,S004,2022_May_26_1525,DecoderConst_fMRI,59.95417283103554,
19_3_11.png,turtle,None,0,76,76,76,,['right'],0,[0.00010609626770019531],,003,S004,2022_May_26_1525,DecoderConst_fMRI,59.95417283103554,
5_3_4.png,spider,right,0,77,77,77,,None,0,,,003,S004,2022_May_26_1525,DecoderConst_fMRI,59.95417283103554,
5_3_5.png,spider,None,0,78,78,78,,None,0,,,003,S004,2022_May_26_1525,DecoderConst_fMRI,59.95417283103554,
37_3_1.png,guitar,None,0,79,79,79,,['right'],0,[0.0001068115234375],,003,S004,2022_May_26_1525,DecoderConst_fMRI,59.95417283103554,
37_3_2.png,guitar,None,0,80,80,80,,['right'],0,[0.00026702880859375],,003,S004,2022_May_26_1525,DecoderConst_fMRI,59.95417283103554,
37_3_3.png,guitar,None,0,81,81,81,,None,0,,,003,S004,2022_May_26_1525,DecoderConst_fMRI,59.95417283103554,
33_3_3.png,bicycle,right,0,82,82,82,,None,0,,,003,S004,2022_May_26_1525,DecoderConst_fMRI,59.95417283103554,
33_3_4.png,bicycle,None,0,83,83,83,,['right'],0,[0.00010704994201660156],,003,S004,2022_May_26_1525,DecoderConst_fMRI,59.95417283103554,
33_3_5.png,bicycle,None,0,84,84,84,,None,0,,,003,S004,2022_May_26_1525,DecoderConst_fMRI,59.95417283103554,
20_3_7.png,beatle,right,0,85,85,85,,None,0,,,003,S004,2022_May_26_1525,DecoderConst_fMRI,59.95417283103554,
20_3_8.png,beatle,None,0,86,86,86,,['right'],0,[0.00011897087097167969],,003,S004,2022_May_26_1525,DecoderConst_fMRI,59.95417283103554,
20_3_9.png,beatle,None,0,87,87,87,,None,0,,,003,S004,2022_May_26_1525,DecoderConst_fMRI,59.95417283103554,
20_3_10.png,beatle,None,0,88,88,88,,None,0,,,003,S004,2022_May_26_1525,DecoderConst_fMRI,59.95417283103554,
9_3_10.png,bird,right,0,89,89,89,,None,0,,,003,S004,2022_May_26_1525,DecoderConst_fMRI,59.95417283103554,
9_3_11.png,bird,None,0,90,90,90,,['right'],0,[0.00015211105346679688],,003,S004,2022_May_26_1525,DecoderConst_fMRI,59.95417283103554,
9_3_12.png,bird,None,0,91,91,91,,None,0,,,003,S004,2022_May_26_1525,DecoderConst_fMRI,59.95417283103554,
9_3_13.png,bird,None,0,92,92,92,,['right'],0,[0.0001289844512939453],,003,S004,2022_May_26_1525,DecoderConst_fMRI,59.95417283103554,
25_3_5.png,guinea pig,right,0,93,93,93,,None,0,,,003,S004,2022_May_26_1525,DecoderConst_fMRI,59.95417283103554,
25_3_6.png,guinea pig,None,0,94,94,94,,['right'],0,[0.00020885467529296875],,003,S004,2022_May_26_1525,DecoderConst_fMRI,59.95417283103554,
25_3_7.png,guinea pig,None,0,95,95,95,,None,0,,,003,S004,2022_May_26_1525,DecoderConst_fMRI,59.95417283103554,
25_3_8.png,guinea pig,None,0,96,96,96,,None,0,,,003,S004,2022_May_26_1525,DecoderConst_fMRI,59.95417283103554,
25_3_9.png,guinea pig,None,0,97,97,97,,None,0,,,003,S004,2022_May_26_1525,DecoderConst_fMRI,59.95417283103554,
25_3_10.png,guinea pig,None,0,98,98,98,,None,0,,,003,S004,2022_May_26_1525,DecoderConst_fMRI,59.95417283103554,
20_3_1.png,beatle,right,0,99,99,99,,None,0,,,003,S004,2022_May_26_1525,DecoderConst_fMRI,59.95417283103554,
20_3_2.png,beatle,None,0,100,100,100,,['right'],0,[9.393692016601562e-05],,003,S004,2022_May_26_1525,DecoderConst_fMRI,59.95417283103554,
20_3_3.png,beatle,None,0,101,101,101,,None,0,,,003,S004,2022_May_26_1525,DecoderConst_fMRI,59.95417283103554,
20_3_4.png,beatle,None,0,102,102,102,,['right'],0,[0.00028896331787109375],,003,S004,2022_May_26_1525,DecoderConst_fMRI,59.95417283103554,
20_3_5.png,beatle,None,0,103,103,103,,None,0,,,003,S004,2022_May_26_1525,DecoderConst_fMRI,59.95417283103554,
20_3_6.png,beatle,None,0,104,104,104,,None,0,,,003,S004,2022_May_26_1525,DecoderConst_fMRI,59.95417283103554,
1_3_7.png,snake,right,0,105,105,105,,None,0,,,003,S004,2022_May_26_1525,DecoderConst_fMRI,59.95417283103554,
1_3_8.png,snake,None,0,106,106,106,,['right'],0,[0.0001468658447265625],,003,S004,2022_May_26_1525,DecoderConst_fMRI,59.95417283103554,
1_3_9.png,snake,None,0,107,107,107,,None,0,,,003,S004,2022_May_26_1525,DecoderConst_fMRI,59.95417283103554,
1_3_10.png,snake,None,0,108,108,108,,None,0,,,003,S004,2022_May_26_1525,DecoderConst_fMRI,59.95417283103554,
15_3_4.png,horse,right,0,109,109,109,,None,0,,,003,S004,2022_May_26_1525,DecoderConst_fMRI,59.95417283103554,
15_3_5.png,horse,None,0,110,110,110,,['right'],0,[0.00010895729064941406],,003,S004,2022_May_26_1525,DecoderConst_fMRI,59.95417283103554,
9_3_7.png,bird,right,0,111,111,111,,None,0,,,003,S004,2022_May_26_1525,DecoderConst_fMRI,59.95417283103554,
9_3_8.png,bird,None,0,112,112,112,,['right'],0,[0.00023794174194335938],,003,S004,2022_May_26_1525,DecoderConst_fMRI,59.95417283103554,
9_3_9.png,bird,None,0,113,113,113,,None,0,,,003,S004,2022_May_26_1525,DecoderConst_fMRI,59.95417283103554,
16_3_7.png,shark,right,0,114,114,114,,None,0,,,003,S004,2022_May_26_1525,DecoderConst_fMRI,59.95417283103554,
16_3_8.png,shark,None,0,115,115,115,,['right'],0,[0.00015783309936523438],,003,S004,2022_May_26_1525,DecoderConst_fMRI,59.95417283103554,
16_3_9.png,shark,None,0,116,116,116,,None,0,,,003,S004,2022_May_26_1525,DecoderConst_fMRI,59.95417283103554,
16_3_10.png,shark,None,0,117,117,117,,None,0,,,003,S004,2022_May_26_1525,DecoderConst_fMRI,59.95417283103554,
31_3_5.png,airplane,right,0,118,118,118,,None,0,,,003,S004,2022_May_26_1525,DecoderConst_fMRI,59.95417283103554,
31_3_6.png,airplane,None,0,119,119,119,,['right'],0,[0.00011706352233886719],,003,S004,2022_May_26_1525,DecoderConst_fMRI,59.95417283103554,
31_3_7.png,airplane,None,0,120,120,120,,None,0,,,003,S004,2022_May_26_1525,DecoderConst_fMRI,59.95417283103554,
18_3_5.png,gecko,right,0,121,121,121,,None,0,,,003,S004,2022_May_26_1525,DecoderConst_fMRI,59.95417283103554,
18_3_6.png,gecko,None,0,122,122,122,,['right'],0,[0.00010418891906738281],,003,S004,2022_May_26_1525,DecoderConst_fMRI,59.95417283103554,
28_3_5.png,giraffe,None,0,123,123,123,,None,0,,,003,S004,2022_May_26_1525,DecoderConst_fMRI,59.95417283103554,
28_3_6.png,giraffe,None,0,124,124,124,,None,0,,,003,S004,2022_May_26_1525,DecoderConst_fMRI,59.95417283103554,
28_3_7.png,giraffe,None,0,125,125,125,,['right'],0,[0.00016498565673828125],,003,S004,2022_May_26_1525,DecoderConst_fMRI,59.95417283103554,
28_3_8.png,giraffe,None,0,126,126,126,,None,0,,,003,S004,2022_May_26_1525,DecoderConst_fMRI,59.95417283103554,
28_3_9.png,giraffe,None,0,127,127,127,,None,0,,,003,S004,2022_May_26_1525,DecoderConst_fMRI,59.95417283103554,
28_3_10.png,giraffe,None,0,128,128,128,,None,0,,,003,S004,2022_May_26_1525,DecoderConst_fMRI,59.95417283103554,
38_3_7.png,cellphone,right,0,129,129,129,,None,0,,,003,S004,2022_May_26_1525,DecoderConst_fMRI,59.95417283103554,
38_3_8.png,cellphone,None,0,130,130,130,,['right'],0,[0.00013589859008789062],,003,S004,2022_May_26_1525,DecoderConst_fMRI,59.95417283103554,
38_3_9.png,cellphone,None,0,131,131,131,,None,0,,,003,S004,2022_May_26_1525,DecoderConst_fMRI,59.95417283103554,
20_3_11.png,beatle,right,0,132,132,132,,None,0,,,003,S004,2022_May_26_1525,DecoderConst_fMRI,59.95417283103554,
20_3_12.png,beatle,None,0,133,133,133,,None,0,,,003,S004,2022_May_26_1525,DecoderConst_fMRI,59.95417283103554,
20_3_13.png,beatle,None,0,134,134,134,,['right'],0,[0.00024700164794921875],,003,S004,2022_May_26_1525,DecoderConst_fMRI,59.95417283103554,
3_3_3.png,cockroach,right,0,135,135,135,,None,0,,,003,S004,2022_May_26_1525,DecoderConst_fMRI,59.95417283103554,
3_3_4.png,cockroach,None,0,136,136,136,,None,0,,,003,S004,2022_May_26_1525,DecoderConst_fMRI,59.95417283103554,
3_3_5.png,cockroach,None,0,137,137,137,,None,0,,,003,S004,2022_May_26_1525,DecoderConst_fMRI,59.95417283103554,
14_3_4.png,cat,right,0,138,138,138,,None,0,,,003,S004,2022_May_26_1525,DecoderConst_fMRI,59.95417283103554,
14_3_5.png,cat,None,0,139,139,139,,['right'],0,[0.00011801719665527344],,003,S004,2022_May_26_1525,DecoderConst_fMRI,59.95417283103554,
14_3_6.png,cat,None,0,140,140,140,,None,0,,,003,S004,2022_May_26_1525,DecoderConst_fMRI,59.95417283103554,
14_3_7.png,cat,None,0,141,141,141,,None,0,,,003,S004,2022_May_26_1525,DecoderConst_fMRI,59.95417283103554,
14_3_8.png,cat,None,0,142,142,142,,None,0,,,003,S004,2022_May_26_1525,DecoderConst_fMRI,59.95417283103554,
14_3_9.png,cat,None,0,143,143,143,,None,0,,,003,S004,2022_May_26_1525,DecoderConst_fMRI,59.95417283103554,
36_3_5.png,key,right,0,144,144,144,,None,0,,,003,S004,2022_May_26_1525,DecoderConst_fMRI,59.95417283103554,
36_3_6.png,key,None,0,145,145,145,,['right'],0,[0.00010895729064941406],,003,S004,2022_May_26_1525,DecoderConst_fMRI,59.95417283103554,
36_3_7.png,key,None,0,146,146,146,,None,0,,,003,S004,2022_May_26_1525,DecoderConst_fMRI,59.95417283103554,
36_3_8.png,key,None,0,147,147,147,,None,0,,,003,S004,2022_May_26_1525,DecoderConst_fMRI,59.95417283103554,
36_3_9.png,key,None,0,148,148,148,,None,0,,,003,S004,2022_May_26_1525,DecoderConst_fMRI,59.95417283103554,
36_3_10.png,key,None,0,149,149,149,,None,0,,,003,S004,2022_May_26_1525,DecoderConst_fMRI,59.95417283103554,
19_3_12.png,turtle,right,0,150,150,150,,None,0,,,003,S004,2022_May_26_1525,DecoderConst_fMRI,59.95417283103554,
19_3_13.png,turtle,None,0,151,151,151,,['right'],0,[0.0001690387725830078],,003,S004,2022_May_26_1525,DecoderConst_fMRI,59.95417283103554,
19_3_14.png,turtle,None,0,152,152,152,,None,0,,,003,S004,2022_May_26_1525,DecoderConst_fMRI,59.95417283103554,
19_3_15.png,turtle,None,0,153,153,153,,None,0,,,003,S004,2022_May_26_1525,DecoderConst_fMRI,59.95417283103554,
9_3_14.png,bird,right,0,154,154,154,,None,0,,,003,S004,2022_May_26_1525,DecoderConst_fMRI,59.95417283103554,
9_3_15.png,bird,None,0,155,155,155,,['right'],0,[0.00013589859008789062],,003,S004,2022_May_26_1525,DecoderConst_fMRI,59.95417283103554,
6_3_5.png,worm,right,0,156,156,156,,None,0,,,003,S004,2022_May_26_1525,DecoderConst_fMRI,59.95417283103554,
6_3_6.png,worm,None,0,157,157,157,,None,0,,,003,S004,2022_May_26_1525,DecoderConst_fMRI,59.95417283103554,
6_3_7.png,worm,None,0,158,158,158,,['right'],0,[0.00011396408081054688],,003,S004,2022_May_26_1525,DecoderConst_fMRI,59.95417283103554,
24_3_4.png,peacock,right,0,159,159,159,,None,0,,,003,S004,2022_May_26_1525,DecoderConst_fMRI,59.95417283103554,
24_3_5.png,peacock,None,0,160,160,160,,['right'],0,[0.00016999244689941406],,003,S004,2022_May_26_1525,DecoderConst_fMRI,59.95417283103554,
12_3_3.png,mouse,right,0,161,161,161,,None,0,,,003,S004,2022_May_26_1525,DecoderConst_fMRI,59.95417283103554,
12_3_4.png,mouse,None,0,162,162,162,,None,0,,,003,S004,2022_May_26_1525,DecoderConst_fMRI,59.95417283103554,
12_3_5.png,mouse,None,0,163,163,163,,['right'],0,[0.0001049041748046875],,003,S004,2022_May_26_1525,DecoderConst_fMRI,59.95417283103554,
12_3_6.png,mouse,None,0,164,164,164,,None,0,,,003,S004,2022_May_26_1525,DecoderConst_fMRI,59.95417283103554,
12_3_7.png,mouse,None,0,165,165,165,,None,0,,,003,S004,2022_May_26_1525,DecoderConst_fMRI,59.95417283103554,
12_3_8.png,mouse,None,0,166,166,166,,None,0,,,003,S004,2022_May_26_1525,DecoderConst_fMRI,59.95417283103554,
7_3_3.png,bee,right,0,167,167,167,,None,0,,,003,S004,2022_May_26_1525,DecoderConst_fMRI,59.95417283103554,
7_3_4.png,bee,None,0,168,168,168,,['right'],0,[0.00012087821960449219],,003,S004,2022_May_26_1525,DecoderConst_fMRI,59.95417283103554,
7_3_5.png,bee,None,0,169,169,169,,None,0,,,003,S004,2022_May_26_1525,DecoderConst_fMRI,59.95417283103554,
7_3_6.png,bee,None,0,170,170,170,,None,0,,,003,S004,2022_May_26_1525,DecoderConst_fMRI,59.95417283103554,
7_3_7.png,bee,None,0,171,171,171,,None,0,,,003,S004,2022_May_26_1525,DecoderConst_fMRI,59.95417283103554,
7_3_8.png,bee,None,0,172,172,172,,None,0,,,003,S004,2022_May_26_1525,DecoderConst_fMRI,59.95417283103554,
20_3_14.png,beatle,right,0,173,173,173,,None,0,,,003,S004,2022_May_26_1525,DecoderConst_fMRI,59.95417283103554,
20_3_15.png,beatle,None,0,174,174,174,,['right'],0,[0.00011992454528808594],,003,S004,2022_May_26_1525,DecoderConst_fMRI,59.95417283103554,
37_3_8.png,guitar,right,0,175,175,175,,None,0,,,003,S004,2022_May_26_1525,DecoderConst_fMRI,59.95417283103554,
37_3_9.png,guitar,None,0,176,176,176,,['right'],0,[0.00011610984802246094],,003,S004,2022_May_26_1525,DecoderConst_fMRI,59.95417283103554,
37_3_10.png,guitar,None,0,177,177,177,,None,0,,,003,S004,2022_May_26_1525,DecoderConst_fMRI,59.95417283103554,
37_3_11.png,guitar,None,0,178,178,178,,None,0,,,003,S004,2022_May_26_1525,DecoderConst_fMRI,59.95417283103554,
37_3_12.png,guitar,None,0,179,179,179,,None,0,,,003,S004,2022_May_26_1525,DecoderConst_fMRI,59.95417283103554,
37_3_13.png,guitar,None,0,180,180,180,,None,0,,,003,S004,2022_May_26_1525,DecoderConst_fMRI,59.95417283103554,
1_3_11.png,snake,right,0,181,181,181,,None,0,,,003,S004,2022_May_26_1525,DecoderConst_fMRI,59.95417283103554,
1_3_12.png,snake,None,0,182,182,182,,['right'],0,[0.00021719932556152344],,003,S004,2022_May_26_1525,DecoderConst_fMRI,59.95417283103554,
1_3_13.png,snake,None,0,183,183,183,,None,0,,,003,S004,2022_May_26_1525,DecoderConst_fMRI,59.95417283103554,
7_3_9.png,bee,right,0,184,184,184,,None,0,,,003,S004,2022_May_26_1525,DecoderConst_fMRI,59.95417283103554,
7_3_10.png,bee,None,0,185,185,185,,['right'],0,[7.891654968261719e-05],,003,S004,2022_May_26_1525,DecoderConst_fMRI,59.95417283103554,
7_3_11.png,bee,None,0,186,186,186,,None,0,,,003,S004,2022_May_26_1525,DecoderConst_fMRI,59.95417283103554,
7_3_12.png,bee,None,0,187,187,187,,None,0,,,003,S004,2022_May_26_1525,DecoderConst_fMRI,59.95417283103554,
19_3_1.png,turtle,right,0,188,188,188,,None,0,,,003,S004,2022_May_26_1525,DecoderConst_fMRI,59.95417283103554,
19_3_2.png,turtle,None,0,189,189,189,,['right'],0,[0.00013113021850585938],,003,S004,2022_May_26_1525,DecoderConst_fMRI,59.95417283103554,
19_3_3.png,turtle,None,0,190,190,190,,None,0,,,003,S004,2022_May_26_1525,DecoderConst_fMRI,59.95417283103554,
19_3_4.png,turtle,None,0,191,191,191,,None,0,,,003,S004,2022_May_26_1525,DecoderConst_fMRI,59.95417283103554,
19_3_5.png,turtle,None,0,192,192,192,,None,0,,,003,S004,2022_May_26_1525,DecoderConst_fMRI,59.95417283103554,
19_3_6.png,turtle,None,0,193,193,193,,None,0,,,003,S004,2022_May_26_1525,DecoderConst_fMRI,59.95417283103554,
1_3_14.png,snake,right,0,194,194,194,,None,0,,,003,S004,2022_May_26_1525,DecoderConst_fMRI,59.95417283103554,
1_3_15.png,snake,None,0,195,195,195,,['right'],0,[8.20159912109375e-05],,003,S004,2022_May_26_1525,DecoderConst_fMRI,59.95417283103554,
37_3_14.png,guitar,right,0,196,196,196,,None,0,,,003,S004,2022_May_26_1525,DecoderConst_fMRI,59.95417283103554,
37_3_15.png,guitar,None,0,197,197,197,,['right'],0,[0.0001418590545654297],,003,S004,2022_May_26_1525,DecoderConst_fMRI,59.95417283103554,
6_3_8.png,worm,right,0,198,198,198,,None,0,,,003,S004,2022_May_26_1525,DecoderConst_fMRI,59.95417283103554,
6_3_9.png,worm,None,0,199,199,199,,['right'],0,[0.0001609325408935547],,003,S004,2022_May_26_1525,DecoderConst_fMRI,59.95417283103554,
5_3_6.png,spider,right,0,200,200,200,,None,0,,,003,S004,2022_May_26_1525,DecoderConst_fMRI,59.95417283103554,
5_3_7.png,spider,None,0,201,201,201,,None,0,,,003,S004,2022_May_26_1525,DecoderConst_fMRI,59.95417283103554,
5_3_8.png,spider,None,0,202,202,202,,['right'],0,[0.00013303756713867188],,003,S004,2022_May_26_1525,DecoderConst_fMRI,59.95417283103554,
5_3_9.png,spider,None,0,203,203,203,,None,0,,,003,S004,2022_May_26_1525,DecoderConst_fMRI,59.95417283103554,
25_3_11.png,guinea pig,right,0,204,204,204,,None,0,,,003,S004,2022_May_26_1525,DecoderConst_fMRI,59.95417283103554,
25_3_12.png,guinea pig,None,0,205,205,205,,['right'],0,[0.00011205673217773438],,003,S004,2022_May_26_1525,DecoderConst_fMRI,59.95417283103554,
7_3_13.png,bee,right,0,206,206,206,,['right'],0,[9.584426879882812e-05],,003,S004,2022_May_26_1525,DecoderConst_fMRI,59.95417283103554,
7_3_14.png,bee,None,0,207,207,207,,['right'],0,[0.00024390220642089844],,003,S004,2022_May_26_1525,DecoderConst_fMRI,59.95417283103554,
7_3_15.png,bee,None,0,208,208,208,,None,0,,,003,S004,2022_May_26_1525,DecoderConst_fMRI,59.95417283103554,
33_3_6.png,bicycle,right,0,209,209,209,,None,0,,,003,S004,2022_May_26_1525,DecoderConst_fMRI,59.95417283103554,
33_3_7.png,bicycle,None,0,210,210,210,,['right'],0,[8.797645568847656e-05],,003,S004,2022_May_26_1525,DecoderConst_fMRI,59.95417283103554,
33_3_8.png,bicycle,None,0,211,211,211,,None,0,,,003,S004,2022_May_26_1525,DecoderConst_fMRI,59.95417283103554,
33_3_9.png,bicycle,None,0,212,212,212,,None,0,,,003,S004,2022_May_26_1525,DecoderConst_fMRI,59.95417283103554,
14_3_10.png,cat,right,0,213,213,213,,None,0,,,003,S004,2022_May_26_1525,DecoderConst_fMRI,59.95417283103554,
14_3_11.png,cat,None,0,214,214,214,,['right'],0,[0.00012302398681640625],,003,S004,2022_May_26_1525,DecoderConst_fMRI,59.95417283103554,
15_3_6.png,horse,right,0,215,215,215,,None,0,,,003,S004,2022_May_26_1525,DecoderConst_fMRI,59.95417283103554,
15_3_7.png,horse,None,0,216,216,216,,['right'],0,[0.0001518726348876953],,003,S004,2022_May_26_1525,DecoderConst_fMRI,59.95417283103554,
15_3_8.png,horse,None,0,217,217,217,,None,0,,,003,S004,2022_May_26_1525,DecoderConst_fMRI,59.95417283103554,
15_3_9.png,horse,None,0,218,218,218,,None,0,,,003,S004,2022_May_26_1525,DecoderConst_fMRI,59.95417283103554,
31_3_8.png,airplane,right,0,219,219,219,,None,0,,,003,S004,2022_May_26_1525,DecoderConst_fMRI,59.95417283103554,
31_3_9.png,airplane,None,0,220,220,220,,['right'],0,[0.00017309188842773438],,003,S004,2022_May_26_1525,DecoderConst_fMRI,59.95417283103554,
31_3_10.png,airplane,None,0,221,221,221,,None,0,,,003,S004,2022_May_26_1525,DecoderConst_fMRI,59.95417283103554,
31_3_11.png,airplane,None,0,222,222,222,,None,0,,,003,S004,2022_May_26_1525,DecoderConst_fMRI,59.95417283103554,
31_3_12.png,airplane,None,0,223,223,223,,None,0,,,003,S004,2022_May_26_1525,DecoderConst_fMRI,59.95417283103554,
31_3_13.png,airplane,None,0,224,224,224,,None,0,,,003,S004,2022_May_26_1525,DecoderConst_fMRI,59.95417283103554,
2_3_7.png,frog,right,0,225,225,225,,None,0,,,003,S004,2022_May_26_1525,DecoderConst_fMRI,59.95417283103554,
2_3_8.png,frog,None,0,226,226,226,,['right'],0,[8.916854858398438e-05],,003,S004,2022_May_26_1525,DecoderConst_fMRI,59.95417283103554,
2_3_9.png,frog,None,0,227,227,227,,None,0,,,003,S004,2022_May_26_1525,DecoderConst_fMRI,59.95417283103554,
2_3_10.png,frog,None,0,228,228,228,,None,0,,,003,S004,2022_May_26_1525,DecoderConst_fMRI,59.95417283103554,
16_3_11.png,shark,right,0,229,229,229,,None,0,,,003,S004,2022_May_26_1525,DecoderConst_fMRI,59.95417283103554,
16_3_12.png,shark,None,0,230,230,230,,None,0,,,003,S004,2022_May_26_1525,DecoderConst_fMRI,59.95417283103554,
16_3_13.png,shark,None,0,231,231,231,,['right'],0,[0.0001888275146484375],,003,S004,2022_May_26_1525,DecoderConst_fMRI,59.95417283103554,
18_3_7.png,gecko,right,0,232,232,232,,None,0,,,003,S004,2022_May_26_1525,DecoderConst_fMRI,59.95417283103554,
18_3_8.png,gecko,None,0,233,233,233,,['right'],0,[0.00016188621520996094],,003,S004,2022_May_26_1525,DecoderConst_fMRI,59.95417283103554,
18_3_9.png,gecko,None,0,234,234,234,,None,0,,,003,S004,2022_May_26_1525,DecoderConst_fMRI,59.95417283103554,
40_3_12.png,chair,right,0,235,235,235,,['right'],0,[0.00022101402282714844],,003,S004,2022_May_26_1525,DecoderConst_fMRI,59.95417283103554,
40_3_13.png,chair,None,0,236,236,236,,['right'],0,[0.00022411346435546875],,003,S004,2022_May_26_1525,DecoderConst_fMRI,59.95417283103554,
40_3_14.png,chair,None,0,237,237,237,,None,0,,,003,S004,2022_May_26_1525,DecoderConst_fMRI,59.95417283103554,
40_3_15.png,chair,None,0,238,238,238,,None,0,,,003,S004,2022_May_26_1525,DecoderConst_fMRI,59.95417283103554,
28_3_11.png,giraffe,right,0,239,239,239,,['right'],0,[0.00014901161193847656],,003,S004,2022_May_26_1525,DecoderConst_fMRI,59.95417283103554,
28_3_12.png,giraffe,None,0,240,240,240,,['right'],0,[0.00014901161193847656],,003,S004,2022_May_26_1525,DecoderConst_fMRI,59.95417283103554,
36_3_11.png,key,right,0,241,241,241,,None,0,,,003,S004,2022_May_26_1525,DecoderConst_fMRI,59.95417283103554,
36_3_12.png,key,None,0,242,242,242,,['right'],0,[0.00013303756713867188],,003,S004,2022_May_26_1525,DecoderConst_fMRI,59.95417283103554,
36_3_13.png,key,None,0,243,243,243,,None,0,,,003,S004,2022_May_26_1525,DecoderConst_fMRI,59.95417283103554,
38_3_10.png,cellphone,right,0,244,244,244,,None,0,,,003,S004,2022_May_26_1525,DecoderConst_fMRI,59.95417283103554,
38_3_11.png,cellphone,None,0,245,245,245,,['right'],0,[0.00021505355834960938],,003,S004,2022_May_26_1525,DecoderConst_fMRI,59.95417283103554,
3_3_6.png,cockroach,right,0,246,246,246,,None,0,,,003,S004,2022_May_26_1525,DecoderConst_fMRI,59.95417283103554,
3_3_7.png,cockroach,None,0,247,247,247,,['right'],0,[0.00018596649169921875],,003,S004,2022_May_26_1525,DecoderConst_fMRI,59.95417283103554,
3_3_8.png,cockroach,None,0,248,248,248,,None,0,,,003,S004,2022_May_26_1525,DecoderConst_fMRI,59.95417283103554,
3_3_9.png,cockroach,None,0,249,249,249,,None,0,,,003,S004,2022_May_26_1525,DecoderConst_fMRI,59.95417283103554,
3_3_10.png,cockroach,None,0,250,250,250,,None,0,,,003,S004,2022_May_26_1525,DecoderConst_fMRI,59.95417283103554,
3_3_11.png,cockroach,None,0,251,251,251,,None,0,,,003,S004,2022_May_26_1525,DecoderConst_fMRI,59.95417283103554,
24_3_6.png,peacock,right,0,252,252,252,,None,0,,,003,S004,2022_May_26_1525,DecoderConst_fMRI,59.95417283103554,
24_3_7.png,peacock,None,0,253,253,253,,['right'],0,[0.00013303756713867188],,003,S004,2022_May_26_1525,DecoderConst_fMRI,59.95417283103554,
24_3_8.png,peacock,None,0,254,254,254,,None,0,,,003,S004,2022_May_26_1525,DecoderConst_fMRI,59.95417283103554,
24_3_9.png,peacock,None,0,255,255,255,,None,0,,,003,S004,2022_May_26_1525,DecoderConst_fMRI,59.95417283103554,
39_3_14.png,umbrella,right,0,256,256,256,,None,0,,,003,S004,2022_May_26_1525,DecoderConst_fMRI,59.95417283103554,
39_3_15.png,umbrella,None,0,257,257,257,,['right'],0,[0.000102996826171875],,003,S004,2022_May_26_1525,DecoderConst_fMRI,59.95417283103554,
27_3_10.png,rabbit,right,0,258,258,258,,None,0,,,003,S004,2022_May_26_1525,DecoderConst_fMRI,59.95417283103554,
27_3_11.png,rabbit,None,0,259,259,259,,['right'],0,[0.00014591217041015625],,003,S004,2022_May_26_1525,DecoderConst_fMRI,59.95417283103554,
27_3_12.png,rabbit,None,0,260,260,260,,None,0,,,003,S004,2022_May_26_1525,DecoderConst_fMRI,59.95417283103554,
27_3_13.png,rabbit,None,0,261,261,261,,None,0,,,003,S004,2022_May_26_1525,DecoderConst_fMRI,59.95417283103554,
27_3_14.png,rabbit,None,0,262,262,262,,None,0,,,003,S004,2022_May_26_1525,DecoderConst_fMRI,59.95417283103554,
27_3_15.png,rabbit,None,0,263,263,263,,None,0,,,003,S004,2022_May_26_1525,DecoderConst_fMRI,59.95417283103554,
32_3_10.png,car,right,0,264,264,264,,['right'],0,[0.00019502639770507812],,003,S004,2022_May_26_1525,DecoderConst_fMRI,59.95417283103554,
32_3_11.png,car,None,0,265,265,265,,None,0,,,003,S004,2022_May_26_1525,DecoderConst_fMRI,59.95417283103554,
32_3_12.png,car,None,0,266,266,266,,None,0,,,003,S004,2022_May_26_1525,DecoderConst_fMRI,59.95417283103554,
32_3_13.png,car,None,0,267,267,267,,['right'],0,[0.00010585784912109375],,003,S004,2022_May_26_1525,DecoderConst_fMRI,59.95417283103554,
32_3_14.png,car,None,0,268,268,268,,None,0,,,003,S004,2022_May_26_1525,DecoderConst_fMRI,59.95417283103554,
32_3_15.png,car,None,0,269,269,269,,None,0,,,003,S004,2022_May_26_1525,DecoderConst_fMRI,59.95417283103554,
12_3_9.png,mouse,right,0,270,270,270,,['right'],0,[0.0001780986785888672],,003,S004,2022_May_26_1525,DecoderConst_fMRI,59.95417283103554,
12_3_10.png,mouse,None,0,271,271,271,,None,0,,,003,S004,2022_May_26_1525,DecoderConst_fMRI,59.95417283103554,
12_3_11.png,mouse,None,0,272,272,272,,None,0,,,003,S004,2022_May_26_1525,DecoderConst_fMRI,59.95417283103554,
23_3_12.png,fly,right,0,273,273,273,,None,0,,,003,S004,2022_May_26_1525,DecoderConst_fMRI,59.95417283103554,
23_3_13.png,fly,None,0,274,274,274,,['right'],0,[0.00011420249938964844],,003,S004,2022_May_26_1525,DecoderConst_fMRI,59.95417283103554,
23_3_14.png,fly,None,0,275,275,275,,None,0,,,003,S004,2022_May_26_1525,DecoderConst_fMRI,59.95417283103554,
23_3_15.png,fly,None,0,276,276,276,,None,0,,,003,S004,2022_May_26_1525,DecoderConst_fMRI,59.95417283103554,
21_3_14.png,grasshoper,right,0,277,277,277,,None,0,,,003,S004,2022_May_26_1525,DecoderConst_fMRI,59.95417283103554,
21_3_15.png,grasshoper,None,0,278,278,278,,['right'],0,[8.893013000488281e-05],,003,S004,2022_May_26_1525,DecoderConst_fMRI,59.95417283103554,
26_3_12.png,sheep,right,0,279,279,279,,None,0,,,003,S004,2022_May_26_1525,DecoderConst_fMRI,59.95417283103554,
26_3_13.png,sheep,None,0,280,280,280,,['right'],0,[0.00014400482177734375],,003,S004,2022_May_26_1525,DecoderConst_fMRI,59.95417283103554,
26_3_14.png,sheep,None,0,281,281,281,,None,0,,,003,S004,2022_May_26_1525,DecoderConst_fMRI,59.95417283103554,
26_3_15.png,sheep,None,0,282,282,282,,None,0,,,003,S004,2022_May_26_1525,DecoderConst_fMRI,59.95417283103554,
35_3_12.png,hammer,right,0,283,283,283,,None,0,,,003,S004,2022_May_26_1525,DecoderConst_fMRI,59.95417283103554,
35_3_13.png,hammer,None,0,284,284,284,,['right'],0,[0.00010800361633300781],,003,S004,2022_May_26_1525,DecoderConst_fMRI,59.95417283103554,
35_3_14.png,hammer,None,0,285,285,285,,None,0,,,003,S004,2022_May_26_1525,DecoderConst_fMRI,59.95417283103554,
35_3_15.png,hammer,None,0,286,286,286,,None,0,,,003,S004,2022_May_26_1525,DecoderConst_fMRI,59.95417283103554,
6_3_10.png,worm,right,0,287,287,287,,None,0,,,003,S004,2022_May_26_1525,DecoderConst_fMRI,59.95417283103554,
6_3_11.png,worm,None,0,288,288,288,,['right'],0,[0.00012993812561035156],,003,S004,2022_May_26_1525,DecoderConst_fMRI,59.95417283103554,
6_3_12.png,worm,None,0,289,289,289,,None,0,,,003,S004,2022_May_26_1525,DecoderConst_fMRI,59.95417283103554,
6_3_13.png,worm,None,0,290,290,290,,None,0,,,003,S004,2022_May_26_1525,DecoderConst_fMRI,59.95417283103554,
6_3_14.png,worm,None,0,291,291,291,,None,0,,,003,S004,2022_May_26_1525,DecoderConst_fMRI,59.95417283103554,
6_3_15.png,worm,None,0,292,292,292,,None,0,,,003,S004,2022_May_26_1525,DecoderConst_fMRI,59.95417283103554,
24_3_10.png,peacock,right,0,293,293,293,,None,0,,,003,S004,2022_May_26_1525,DecoderConst_fMRI,59.95417283103554,
24_3_11.png,peacock,None,0,294,294,294,,['right'],0,[0.00011491775512695312],,003,S004,2022_May_26_1525,DecoderConst_fMRI,59.95417283103554,
24_3_12.png,peacock,None,0,295,295,295,,None,0,,,003,S004,2022_May_26_1525,DecoderConst_fMRI,59.95417283103554,
24_3_13.png,peacock,None,0,296,296,296,,None,0,,,003,S004,2022_May_26_1525,DecoderConst_fMRI,59.95417283103554,
24_3_14.png,peacock,None,0,297,297,297,,None,0,,,003,S004,2022_May_26_1525,DecoderConst_fMRI,59.95417283103554,
24_3_15.png,peacock,None,0,298,298,298,,None,0,,,003,S004,2022_May_26_1525,DecoderConst_fMRI,59.95417283103554,
5_3_10.png,spider,right,0,299,299,299,,None,0,,,003,S004,2022_May_26_1525,DecoderConst_fMRI,59.95417283103554,
5_3_11.png,spider,None,0,300,300,300,,['right'],0,[0.0001590251922607422],,003,S004,2022_May_26_1525,DecoderConst_fMRI,59.95417283103554,
5_3_12.png,spider,None,0,301,301,301,,None,0,,,003,S004,2022_May_26_1525,DecoderConst_fMRI,59.95417283103554,
5_3_13.png,spider,None,0,302,302,302,,None,0,,,003,S004,2022_May_26_1525,DecoderConst_fMRI,59.95417283103554,
5_3_14.png,spider,None,0,303,303,303,,None,0,,,003,S004,2022_May_26_1525,DecoderConst_fMRI,59.95417283103554,
5_3_15.png,spider,None,0,304,304,304,,None,0,,,003,S004,2022_May_26_1525,DecoderConst_fMRI,59.95417283103554,
34_3_10.png,scissor,right,0,305,305,305,,None,0,,,003,S004,2022_May_26_1525,DecoderConst_fMRI,59.95417283103554,
34_3_11.png,scissor,None,0,306,306,306,,['right'],0,[0.00023603439331054688],,003,S004,2022_May_26_1525,DecoderConst_fMRI,59.95417283103554,
33_3_10.png,bicycle,right,0,307,307,307,,None,0,,,003,S004,2022_May_26_1525,DecoderConst_fMRI,59.95417283103554,
33_3_11.png,bicycle,None,0,308,308,308,,['right'],0,[9.202957153320312e-05],,003,S004,2022_May_26_1525,DecoderConst_fMRI,59.95417283103554,
33_3_12.png,bicycle,None,0,309,309,309,,None,0,,,003,S004,2022_May_26_1525,DecoderConst_fMRI,59.95417283103554,
33_3_13.png,bicycle,None,0,310,310,310,,None,0,,,003,S004,2022_May_26_1525,DecoderConst_fMRI,59.95417283103554,
33_3_14.png,bicycle,None,0,311,311,311,,None,0,,,003,S004,2022_May_26_1525,DecoderConst_fMRI,59.95417283103554,
33_3_15.png,bicycle,None,0,312,312,312,,None,0,,,003,S004,2022_May_26_1525,DecoderConst_fMRI,59.95417283103554,
25_3_13.png,guinea pig,right,0,313,313,313,,None,0,,,003,S004,2022_May_26_1525,DecoderConst_fMRI,59.95417283103554,
25_3_14.png,guinea pig,None,0,314,314,314,,['right'],0,[0.00014090538024902344],,003,S004,2022_May_26_1525,DecoderConst_fMRI,59.95417283103554,
25_3_15.png,guinea pig,None,0,315,315,315,,None,0,,,003,S004,2022_May_26_1525,DecoderConst_fMRI,59.95417283103554,
36_3_14.png,key,right,0,316,316,316,,None,0,,,003,S004,2022_May_26_1525,DecoderConst_fMRI,59.95417283103554,
36_3_15.png,key,None,0,317,317,317,,None,0,,,003,S004,2022_May_26_1525,DecoderConst_fMRI,59.95417283103554,
29_3_13.png,whale,right,0,318,318,318,,['right'],0,[0.00017690658569335938],,003,S004,2022_May_26_1525,DecoderConst_fMRI,59.95417283103554,
29_3_14.png,whale,None,0,319,319,319,,None,0,,,003,S004,2022_May_26_1525,DecoderConst_fMRI,59.95417283103554,
29_3_15.png,whale,None,0,320,320,320,,['right'],0,[0.0003590583801269531],,003,S004,2022_May_26_1525,DecoderConst_fMRI,59.95417283103554,
14_3_12.png,cat,right,0,321,321,321,,None,0,,,003,S004,2022_May_26_1525,DecoderConst_fMRI,59.95417283103554,
14_3_13.png,cat,None,0,322,322,322,,None,0,,,003,S004,2022_May_26_1525,DecoderConst_fMRI,59.95417283103554,
14_3_14.png,cat,None,0,323,323,323,,['right'],0,[0.0001552104949951172],,003,S004,2022_May_26_1525,DecoderConst_fMRI,59.95417283103554,
14_3_15.png,cat,None,0,324,324,324,,None,0,,,003,S004,2022_May_26_1525,DecoderConst_fMRI,59.95417283103554,
31_3_14.png,airplane,right,0,325,325,325,,None,0,,,003,S004,2022_May_26_1525,DecoderConst_fMRI,59.95417283103554,
31_3_15.png,airplane,None,0,326,326,326,,['right'],0,[0.00020599365234375],,003,S004,2022_May_26_1525,DecoderConst_fMRI,59.95417283103554,
22_3_14.png,catterpilar,right,0,327,327,327,,None,0,,,003,S004,2022_May_26_1525,DecoderConst_fMRI,59.95417283103554,
22_3_15.png,catterpilar,None,0,328,328,328,,['right'],0,[0.00020503997802734375],,003,S004,2022_May_26_1525,DecoderConst_fMRI,59.95417283103554,
15_3_10.png,horse,right,0,329,329,329,,None,0,,,003,S004,2022_May_26_1525,DecoderConst_fMRI,59.95417283103554,
15_3_11.png,horse,None,0,330,330,330,,None,0,,,003,S004,2022_May_26_1525,DecoderConst_fMRI,59.95417283103554,
15_3_12.png,horse,None,0,331,331,331,,['right'],0,[0.00020003318786621094],,003,S004,2022_May_26_1525,DecoderConst_fMRI,59.95417283103554,
15_3_13.png,horse,None,0,332,332,332,,None,0,,,003,S004,2022_May_26_1525,DecoderConst_fMRI,59.95417283103554,
15_3_14.png,horse,None,0,333,333,333,,None,0,,,003,S004,2022_May_26_1525,DecoderConst_fMRI,59.95417283103554,
15_3_15.png,horse,None,0,334,334,334,,None,0,,,003,S004,2022_May_26_1525,DecoderConst_fMRI,59.95417283103554,
2_3_11.png,frog,right,0,335,335,335,,None,0,,,003,S004,2022_May_26_1525,DecoderConst_fMRI,59.95417283103554,
2_3_12.png,frog,None,0,336,336,336,,['right'],0,[0.00014209747314453125],,003,S004,2022_May_26_1525,DecoderConst_fMRI,59.95417283103554,
2_3_13.png,frog,None,0,337,337,337,,None,0,,,003,S004,2022_May_26_1525,DecoderConst_fMRI,59.95417283103554,
16_3_14.png,shark,right,0,338,338,338,,None,0,,,003,S004,2022_May_26_1525,DecoderConst_fMRI,59.95417283103554,
16_3_15.png,shark,None,0,339,339,339,,['right'],0,[0.00011396408081054688],,003,S004,2022_May_26_1525,DecoderConst_fMRI,59.95417283103554,
18_3_10.png,gecko,right,0,340,340,340,,None,0,,,003,S004,2022_May_26_1525,DecoderConst_fMRI,59.95417283103554,
18_3_11.png,gecko,None,0,341,341,341,,['right'],0,[0.00014400482177734375],,003,S004,2022_May_26_1525,DecoderConst_fMRI,59.95417283103554,
18_3_12.png,gecko,None,0,342,342,342,,None,0,,,003,S004,2022_May_26_1525,DecoderConst_fMRI,59.95417283103554,
18_3_13.png,gecko,None,0,343,343,343,,None,0,,,003,S004,2022_May_26_1525,DecoderConst_fMRI,59.95417283103554,
18_3_14.png,gecko,None,0,344,344,344,,None,0,,,003,S004,2022_May_26_1525,DecoderConst_fMRI,59.95417283103554,
18_3_15.png,gecko,None,0,345,345,345,,None,0,,,003,S004,2022_May_26_1525,DecoderConst_fMRI,59.95417283103554,
28_3_13.png,giraffe,right,0,346,346,346,,None,0,,,003,S004,2022_May_26_1525,DecoderConst_fMRI,59.95417283103554,
28_3_14.png,giraffe,None,0,347,347,347,,['right'],0,[0.0002551078796386719],,003,S004,2022_May_26_1525,DecoderConst_fMRI,59.95417283103554,
28_3_15.png,giraffe,None,0,348,348,348,,None,0,,,003,S004,2022_May_26_1525,DecoderConst_fMRI,59.95417283103554,
38_3_12.png,cellphone,right,0,349,349,349,,None,0,,,003,S004,2022_May_26_1525,DecoderConst_fMRI,59.95417283103554,
38_3_13.png,cellphone,None,0,350,350,350,,['right'],0,[0.0003390312194824219],,003,S004,2022_May_26_1525,DecoderConst_fMRI,59.95417283103554,
38_3_14.png,cellphone,None,0,351,351,351,,None,0,,,003,S004,2022_May_26_1525,DecoderConst_fMRI,59.95417283103554,
38_3_15.png,cellphone,None,0,352,352,352,,None,0,,,003,S004,2022_May_26_1525,DecoderConst_fMRI,59.95417283103554,
3_3_12.png,cockroach,right,0,353,353,353,,None,0,,,003,S004,2022_May_26_1525,DecoderConst_fMRI,59.95417283103554,
3_3_13.png,cockroach,None,0,354,354,354,,['right'],0,[8.988380432128906e-05],,003,S004,2022_May_26_1525,DecoderConst_fMRI,59.95417283103554,
3_3_14.png,cockroach,None,0,355,355,355,,None,0,,,003,S004,2022_May_26_1525,DecoderConst_fMRI,59.95417283103554,
3_3_15.png,cockroach,None,0,356,356,356,,None,0,,,003,S004,2022_May_26_1525,DecoderConst_fMRI,59.95417283103554,
21_3_10.png,grasshoper,right,0,357,357,357,,None,0,,,003,S004,2022_May_26_1525,DecoderConst_fMRI,59.95417283103554,
21_3_11.png,grasshoper,None,0,358,358,358,,None,0,,,003,S004,2022_May_26_1525,DecoderConst_fMRI,59.95417283103554,
21_3_12.png,grasshoper,None,0,359,359,359,,['right'],0,[9.417533874511719e-05],,003,S004,2022_May_26_1525,DecoderConst_fMRI,59.95417283103554,
21_3_13.png,grasshoper,None,0,360,360,360,,None,0,,,003,S004,2022_May_26_1525,DecoderConst_fMRI,59.95417283103554,
40_3_9.png,chair,right,0,361,361,361,,None,0,,,003,S004,2022_May_26_1525,DecoderConst_fMRI,59.95417283103554,
40_3_10.png,chair,None,0,362,362,362,,['right'],0,[0.0001308917999267578],,003,S004,2022_May_26_1525,DecoderConst_fMRI,59.95417283103554,
40_3_11.png,chair,None,0,363,363,363,,None,0,,,003,S004,2022_May_26_1525,DecoderConst_fMRI,59.95417283103554,
12_3_12.png,mouse,right,0,364,364,364,,None,0,,,003,S004,2022_May_26_1525,DecoderConst_fMRI,59.95417283103554,
12_3_13.png,mouse,None,0,365,365,365,,['right'],0,[9.417533874511719e-05],,003,S004,2022_May_26_1525,DecoderConst_fMRI,59.95417283103554,
12_3_14.png,mouse,None,0,366,366,366,,None,0,,,003,S004,2022_May_26_1525,DecoderConst_fMRI,59.95417283103554,
12_3_15.png,mouse,None,0,367,367,367,,None,0,,,003,S004,2022_May_26_1525,DecoderConst_fMRI,59.95417283103554,
39_3_11.png,umbrella,right,0,368,368,368,,None,0,,,003,S004,2022_May_26_1525,DecoderConst_fMRI,59.95417283103554,
39_3_12.png,umbrella,None,0,369,369,369,,['right'],0,[0.00011396408081054688],,003,S004,2022_May_26_1525,DecoderConst_fMRI,59.95417283103554,
39_3_13.png,umbrella,None,0,370,370,370,,None,0,,,003,S004,2022_May_26_1525,DecoderConst_fMRI,59.95417283103554,
27_3_8.png,rabbit,right,0,371,371,371,,None,0,,,003,S004,2022_May_26_1525,DecoderConst_fMRI,59.95417283103554,
27_3_9.png,rabbit,None,0,372,372,372,,['right'],0,[0.00015401840209960938],,003,S004,2022_May_26_1525,DecoderConst_fMRI,59.95417283103554,
32_3_7.png,car,right,0,373,373,373,,None,0,,,003,S004,2022_May_26_1525,DecoderConst_fMRI,59.95417283103554,
32_3_8.png,car,None,0,374,374,374,,['right'],0,[0.00010704994201660156],,003,S004,2022_May_26_1525,DecoderConst_fMRI,59.95417283103554,
32_3_9.png,car,None,0,375,375,375,,None,0,,,003,S004,2022_May_26_1525,DecoderConst_fMRI,59.95417283103554,
17_3_10.png,fish,right,0,376,376,376,,None,0,,,003,S004,2022_May_26_1525,DecoderConst_fMRI,59.95417283103554,
17_3_11.png,fish,None,0,377,377,377,,['right'],0,[0.000125885009765625],,003,S004,2022_May_26_1525,DecoderConst_fMRI,59.95417283103554,
17_3_12.png,fish,None,0,378,378,378,,None,0,,,003,S004,2022_May_26_1525,DecoderConst_fMRI,59.95417283103554,
17_3_13.png,fish,None,0,379,379,379,,None,0,,,003,S004,2022_May_26_1525,DecoderConst_fMRI,59.95417283103554,
17_3_14.png,fish,None,0,380,380,380,,None,0,,,003,S004,2022_May_26_1525,DecoderConst_fMRI,59.95417283103554,
17_3_15.png,fish,None,0,381,381,381,,None,0,,,003,S004,2022_May_26_1525,DecoderConst_fMRI,59.95417283103554,
26_3_6.png,sheep,right,0,382,382,382,,None,0,,,003,S004,2022_May_26_1525,DecoderConst_fMRI,59.95417283103554,
26_3_7.png,sheep,None,0,383,383,383,,['right'],0,[0.00011897087097167969],,003,S004,2022_May_26_1525,DecoderConst_fMRI,59.95417283103554,
26_3_8.png,sheep,None,0,384,384,384,,None,0,,,003,S004,2022_May_26_1525,DecoderConst_fMRI,59.95417283103554,
26_3_9.png,sheep,None,0,385,385,385,,None,0,,,003,S004,2022_May_26_1525,DecoderConst_fMRI,59.95417283103554,
26_3_10.png,sheep,None,0,386,386,386,,None,0,,,003,S004,2022_May_26_1525,DecoderConst_fMRI,59.95417283103554,
26_3_11.png,sheep,None,0,387,387,387,,None,0,,,003,S004,2022_May_26_1525,DecoderConst_fMRI,59.95417283103554,
35_3_10.png,hammer,right,0,388,388,388,,None,0,,,003,S004,2022_May_26_1525,DecoderConst_fMRI,59.95417283103554,
35_3_11.png,hammer,None,0,389,389,389,,['right'],0,[0.00011396408081054688],,003,S004,2022_May_26_1525,DecoderConst_fMRI,59.95417283103554,
23_3_10.png,fly,right,0,390,390,390,,None,0,,,003,S004,2022_May_26_1525,DecoderConst_fMRI,59.95417283103554,
23_3_11.png,fly,None,0,391,391,391,,['right'],0,[0.00014591217041015625],,003,S004,2022_May_26_1525,DecoderConst_fMRI,59.95417283103554,
8_3_1.png,butterfly,right,0,392,392,392,,None,0,,,003,S004,2022_May_26_1525,DecoderConst_fMRI,59.95417283103554,
8_3_2.png,butterfly,None,0,393,393,393,,['right'],0,[0.00012993812561035156],,003,S004,2022_May_26_1525,DecoderConst_fMRI,59.95417283103554,
4_3_11.png,ants,right,0,394,394,394,,None,0,,,003,S004,2022_May_26_1525,DecoderConst_fMRI,59.95417283103554,
4_3_12.png,ants,None,0,395,395,395,,None,0,,,003,S004,2022_May_26_1525,DecoderConst_fMRI,59.95417283103554,
4_3_13.png,ants,None,0,396,396,396,,['right'],0,[9.202957153320312e-05],,003,S004,2022_May_26_1525,DecoderConst_fMRI,59.95417283103554,
29_3_11.png,whale,right,0,397,397,397,,None,0,,,003,S004,2022_May_26_1525,DecoderConst_fMRI,59.95417283103554,
29_3_12.png,whale,None,0,398,398,398,,['right'],0,[0.0001430511474609375],,003,S004,2022_May_26_1525,DecoderConst_fMRI,59.95417283103554,
22_3_8.png,catterpilar,right,0,399,399,399,,None,0,,,003,S004,2022_May_26_1525,DecoderConst_fMRI,59.95417283103554,
22_3_9.png,catterpilar,None,0,400,400,400,,['right'],0,[0.0003039836883544922],,003,S004,2022_May_26_1525,DecoderConst_fMRI,59.95417283103554,
22_3_10.png,catterpilar,None,0,401,401,401,,['right'],0,[9.107589721679688e-05],,003,S004,2022_May_26_1525,DecoderConst_fMRI,59.95417283103554,
22_3_11.png,catterpilar,None,0,402,402,402,,None,0,,,003,S004,2022_May_26_1525,DecoderConst_fMRI,59.95417283103554,
22_3_12.png,catterpilar,None,0,403,403,403,,None,0,,,003,S004,2022_May_26_1525,DecoderConst_fMRI,59.95417283103554,
22_3_13.png,catterpilar,None,0,404,404,404,,None,0,,,003,S004,2022_May_26_1525,DecoderConst_fMRI,59.95417283103554,
34_3_12.png,scissor,right,0,405,405,405,,None,0,,,003,S004,2022_May_26_1525,DecoderConst_fMRI,59.95417283103554,
34_3_13.png,scissor,None,0,406,406,406,,['right'],0,[0.00010180473327636719],,003,S004,2022_May_26_1525,DecoderConst_fMRI,59.95417283103554,
34_3_14.png,scissor,None,0,407,407,407,,None,0,,,003,S004,2022_May_26_1525,DecoderConst_fMRI,59.95417283103554,
34_3_15.png,scissor,None,0,408,408,408,,None,0,,,003,S004,2022_May_26_1525,DecoderConst_fMRI,59.95417283103554,
11_3_10.png,chicken,right,0,409,409,409,,None,0,,,003,S004,2022_May_26_1525,DecoderConst_fMRI,59.95417283103554,
11_3_11.png,chicken,None,0,410,410,410,,['right'],0,[0.0001819133758544922],,003,S004,2022_May_26_1525,DecoderConst_fMRI,59.95417283103554,
11_3_12.png,chicken,None,0,411,411,411,,None,0,,,003,S004,2022_May_26_1525,DecoderConst_fMRI,59.95417283103554,
11_3_13.png,chicken,None,0,412,412,412,,None,0,,,003,S004,2022_May_26_1525,DecoderConst_fMRI,59.95417283103554,
11_3_14.png,chicken,None,0,413,413,413,,None,0,,,003,S004,2022_May_26_1525,DecoderConst_fMRI,59.95417283103554,
11_3_15.png,chicken,None,0,414,414,414,,None,0,,,003,S004,2022_May_26_1525,DecoderConst_fMRI,59.95417283103554,
13_3_9.png,dog,right,0,415,415,415,,None,0,,,003,S004,2022_May_26_1525,DecoderConst_fMRI,59.95417283103554,
13_3_10.png,dog,None,0,416,416,416,,['right'],0,[0.00019288063049316406],,003,S004,2022_May_26_1525,DecoderConst_fMRI,59.95417283103554,
13_3_11.png,dog,None,0,417,417,417,,None,0,,,003,S004,2022_May_26_1525,DecoderConst_fMRI,59.95417283103554,
13_3_12.png,dog,None,0,418,418,418,,None,0,,,003,S004,2022_May_26_1525,DecoderConst_fMRI,59.95417283103554,
10_3_6.png,bat,right,0,419,419,419,,None,0,,,003,S004,2022_May_26_1525,DecoderConst_fMRI,59.95417283103554,
10_3_7.png,bat,None,0,420,420,420,,['right'],0,[0.00010204315185546875],,003,S004,2022_May_26_1525,DecoderConst_fMRI,59.95417283103554,
10_3_8.png,bat,None,0,421,421,421,,None,0,,,003,S004,2022_May_26_1525,DecoderConst_fMRI,59.95417283103554,
10_3_9.png,bat,None,0,422,422,422,,None,0,,,003,S004,2022_May_26_1525,DecoderConst_fMRI,59.95417283103554,
10_3_10.png,bat,None,0,423,423,423,,None,0,,,003,S004,2022_May_26_1525,DecoderConst_fMRI,59.95417283103554,
10_3_11.png,bat,None,0,424,424,424,,None,0,,,003,S004,2022_May_26_1525,DecoderConst_fMRI,59.95417283103554,
30_3_14.png,dolphin,right,0,425,425,425,,None,0,,,003,S004,2022_May_26_1525,DecoderConst_fMRI,59.95417283103554,
30_3_15.png,dolphin,None,0,426,426,426,,['right'],0,[0.00014519691467285156],,003,S004,2022_May_26_1525,DecoderConst_fMRI,59.95417283103554,
4_3_14.png,ants,right,0,427,427,427,,None,0,,,003,S004,2022_May_26_1525,DecoderConst_fMRI,59.95417283103554,
4_3_15.png,ants,None,0,428,428,428,,['right'],0,[0.00014495849609375],,003,S004,2022_May_26_1525,DecoderConst_fMRI,59.95417283103554,
17_3_7.png,fish,None,0,429,429,429,,None,0,,,003,S004,2022_May_26_1525,DecoderConst_fMRI,59.95417283103554,
17_3_8.png,fish,None,0,430,430,430,,['right'],0,[0.00013303756713867188],,003,S004,2022_May_26_1525,DecoderConst_fMRI,59.95417283103554,
17_3_9.png,fish,None,0,431,431,431,,None,0,,,003,S004,2022_May_26_1525,DecoderConst_fMRI,59.95417283103554,
8_3_6.png,butterfly,right,0,432,432,432,,None,0,,,003,S004,2022_May_26_1525,DecoderConst_fMRI,59.95417283103554,
8_3_7.png,butterfly,None,0,433,433,433,,['right'],0,[0.00013589859008789062],,003,S004,2022_May_26_1525,DecoderConst_fMRI,59.95417283103554,
8_3_8.png,butterfly,None,0,434,434,434,,None,0,,,003,S004,2022_May_26_1525,DecoderConst_fMRI,59.95417283103554,
8_3_9.png,butterfly,None,0,435,435,435,,None,0,,,003,S004,2022_May_26_1525,DecoderConst_fMRI,59.95417283103554,
8_3_10.png,butterfly,None,0,436,436,436,,None,0,,,003,S004,2022_May_26_1525,DecoderConst_fMRI,59.95417283103554,
8_3_11.png,butterfly,None,0,437,437,437,,None,0,,,003,S004,2022_May_26_1525,DecoderConst_fMRI,59.95417283103554,
34_3_7.png,scissor,right,0,438,438,438,,None,0,,,003,S004,2022_May_26_1525,DecoderConst_fMRI,59.95417283103554,
34_3_8.png,scissor,None,0,439,439,439,,['right'],0,[0.000102996826171875],,003,S004,2022_May_26_1525,DecoderConst_fMRI,59.95417283103554,
34_3_9.png,scissor,None,0,440,440,440,,None,0,,,003,S004,2022_May_26_1525,DecoderConst_fMRI,59.95417283103554,
13_3_13.png,dog,right,0,441,441,441,,None,0,,,003,S004,2022_May_26_1525,DecoderConst_fMRI,59.95417283103554,
13_3_14.png,dog,None,0,442,442,442,,['right'],0,[0.0001399517059326172],,003,S004,2022_May_26_1525,DecoderConst_fMRI,59.95417283103554,
13_3_15.png,dog,None,0,443,443,443,,None,0,,,003,S004,2022_May_26_1525,DecoderConst_fMRI,59.95417283103554,
22_3_5.png,catterpilar,right,0,444,444,444,,None,0,,,003,S004,2022_May_26_1525,DecoderConst_fMRI,59.95417283103554,
22_3_6.png,catterpilar,None,0,445,445,445,,['right'],0,[0.00010895729064941406],,003,S004,2022_May_26_1525,DecoderConst_fMRI,59.95417283103554,
22_3_7.png,catterpilar,None,0,446,446,446,,None,0,,,003,S004,2022_May_26_1525,DecoderConst_fMRI,59.95417283103554,
2_3_1.png,frog,right,0,447,447,447,,None,0,,,003,S004,2022_May_26_1525,DecoderConst_fMRI,59.95417283103554,
2_3_2.png,frog,None,0,448,448,448,,None,0,,,003,S004,2022_May_26_1525,DecoderConst_fMRI,59.95417283103554,
2_3_3.png,frog,None,0,449,449,449,,['right'],0,[9.012222290039062e-05],,003,S004,2022_May_26_1525,DecoderConst_fMRI,59.95417283103554,
2_3_4.png,frog,None,0,450,450,450,,None,0,,,003,S004,2022_May_26_1525,DecoderConst_fMRI,59.95417283103554,
2_3_5.png,frog,None,0,451,451,451,,None,0,,,003,S004,2022_May_26_1525,DecoderConst_fMRI,59.95417283103554,
2_3_6.png,frog,None,0,452,452,452,,None,0,,,003,S004,2022_May_26_1525,DecoderConst_fMRI,59.95417283103554,
4_3_1.png,ants,right,0,453,453,453,,None,0,,,003,S004,2022_May_26_1525,DecoderConst_fMRI,59.95417283103554,
4_3_2.png,ants,None,0,454,454,454,,['right'],0,[9.608268737792969e-05],,003,S004,2022_May_26_1525,DecoderConst_fMRI,59.95417283103554,
4_3_3.png,ants,None,0,455,455,455,,None,0,,,003,S004,2022_May_26_1525,DecoderConst_fMRI,59.95417283103554,
4_3_4.png,ants,None,0,456,456,456,,None,0,,,003,S004,2022_May_26_1525,DecoderConst_fMRI,59.95417283103554,
4_3_5.png,ants,None,0,457,457,457,,None,0,,,003,S004,2022_May_26_1525,DecoderConst_fMRI,59.95417283103554,
4_3_6.png,ants,None,0,458,458,458,,None,0,,,003,S004,2022_May_26_1525,DecoderConst_fMRI,59.95417283103554,
21_3_7.png,grasshoper,right,0,459,459,459,,None,0,,,003,S004,2022_May_26_1525,DecoderConst_fMRI,59.95417283103554,
21_3_8.png,grasshoper,None,0,460,460,460,,['right'],0,[0.00013184547424316406],,003,S004,2022_May_26_1525,DecoderConst_fMRI,59.95417283103554,
21_3_9.png,grasshoper,None,0,461,461,461,,None,0,,,003,S004,2022_May_26_1525,DecoderConst_fMRI,59.95417283103554,
39_3_7.png,umbrella,right,0,462,462,462,,None,0,,,003,S004,2022_May_26_1525,DecoderConst_fMRI,59.95417283103554,
39_3_8.png,umbrella,None,0,463,463,463,,"['right', 'right']",0,[0.00022602081298828125],,003,S004,2022_May_26_1525,DecoderConst_fMRI,59.95417283103554,
39_3_9.png,umbrella,None,0,464,464,464,,None,0,,,003,S004,2022_May_26_1525,DecoderConst_fMRI,59.95417283103554,
39_3_10.png,umbrella,None,0,465,465,465,,None,0,,,003,S004,2022_May_26_1525,DecoderConst_fMRI,59.95417283103554,
40_3_7.png,chair,right,0,466,466,466,,None,0,,,003,S004,2022_May_26_1525,DecoderConst_fMRI,59.95417283103554,
40_3_8.png,chair,None,0,467,467,467,,['right'],0,[0.00011205673217773438],,003,S004,2022_May_26_1525,DecoderConst_fMRI,59.95417283103554,
10_3_3.png,bat,right,0,468,468,468,,None,0,,,003,S004,2022_May_26_1525,DecoderConst_fMRI,59.95417283103554,
10_3_4.png,bat,None,0,469,469,469,,['right'],0,[0.00010991096496582031],,003,S004,2022_May_26_1525,DecoderConst_fMRI,59.95417283103554,
10_3_5.png,bat,None,0,470,470,470,,None,0,,,003,S004,2022_May_26_1525,DecoderConst_fMRI,59.95417283103554,
27_3_4.png,rabbit,right,0,471,471,471,,None,0,,,003,S004,2022_May_26_1525,DecoderConst_fMRI,59.95417283103554,
27_3_5.png,rabbit,None,0,472,472,472,,['right'],0,[0.00018405914306640625],,003,S004,2022_May_26_1525,DecoderConst_fMRI,59.95417283103554,
27_3_6.png,rabbit,None,0,473,473,473,,None,0,,,003,S004,2022_May_26_1525,DecoderConst_fMRI,59.95417283103554,
27_3_7.png,rabbit,None,0,474,474,474,,None,0,,,003,S004,2022_May_26_1525,DecoderConst_fMRI,59.95417283103554,
30_3_11.png,dolphin,right,0,475,475,475,,None,0,,,003,S004,2022_May_26_1525,DecoderConst_fMRI,59.95417283103554,
30_3_12.png,dolphin,None,0,476,476,476,,['right'],0,[0.00019311904907226562],,003,S004,2022_May_26_1525,DecoderConst_fMRI,59.95417283103554,
30_3_13.png,dolphin,None,0,477,477,477,,None,0,,,003,S004,2022_May_26_1525,DecoderConst_fMRI,59.95417283103554,
32_3_5.png,car,right,0,478,478,478,,None,0,,,003,S004,2022_May_26_1525,DecoderConst_fMRI,59.95417283103554,
32_3_6.png,car,None,0,479,479,479,,['right'],0,[0.0001239776611328125],,003,S004,2022_May_26_1525,DecoderConst_fMRI,59.95417283103554,
11_3_1.png,chicken,right,0,480,480,480,,None,0,,,003,S004,2022_May_26_1525,DecoderConst_fMRI,59.95417283103554,
11_3_2.png,chicken,None,0,481,481,481,,['right'],0,[0.00017118453979492188],,003,S004,2022_May_26_1525,DecoderConst_fMRI,59.95417283103554,
35_3_4.png,hammer,right,0,482,482,482,,None,0,,,003,S004,2022_May_26_1525,DecoderConst_fMRI,59.95417283103554,
35_3_5.png,hammer,None,0,483,483,483,,['right'],0,[0.00013113021850585938],,003,S004,2022_May_26_1525,DecoderConst_fMRI,59.95417283103554,
35_3_6.png,hammer,None,0,484,484,484,,None,0,,,003,S004,2022_May_26_1525,DecoderConst_fMRI,59.95417283103554,
35_3_7.png,hammer,None,0,485,485,485,,None,0,,,003,S004,2022_May_26_1525,DecoderConst_fMRI,59.95417283103554,
35_3_8.png,hammer,None,0,486,486,486,,None,0,,,003,S004,2022_May_26_1525,DecoderConst_fMRI,59.95417283103554,
35_3_9.png,hammer,None,0,487,487,487,,None,0,,,003,S004,2022_May_26_1525,DecoderConst_fMRI,59.95417283103554,
26_3_4.png,sheep,right,0,488,488,488,,None,0,,,003,S004,2022_May_26_1525,DecoderConst_fMRI,59.95417283103554,
26_3_5.png,sheep,None,0,489,489,489,,['right'],0,[0.00020813941955566406],,003,S004,2022_May_26_1525,DecoderConst_fMRI,59.95417283103554,
10_3_12.png,bat,right,0,490,490,490,,None,0,,,003,S004,2022_May_26_1525,DecoderConst_fMRI,59.95417283103554,
10_3_13.png,bat,None,0,491,491,491,,['right'],0,[0.000308990478515625],,003,S004,2022_May_26_1525,DecoderConst_fMRI,59.95417283103554,
10_3_14.png,bat,None,0,492,492,492,,None,0,,,003,S004,2022_May_26_1525,DecoderConst_fMRI,59.95417283103554,
10_3_15.png,bat,None,0,493,493,493,,None,0,,,003,S004,2022_May_26_1525,DecoderConst_fMRI,59.95417283103554,
13_3_7.png,dog,right,0,494,494,494,,None,0,,,003,S004,2022_May_26_1525,DecoderConst_fMRI,59.95417283103554,
13_3_8.png,dog,None,0,495,495,495,,['right'],0,[9.489059448242188e-05],,003,S004,2022_May_26_1525,DecoderConst_fMRI,59.95417283103554,
23_3_7.png,fly,right,0,496,496,496,,None,0,,,003,S004,2022_May_26_1525,DecoderConst_fMRI,59.95417283103554,
23_3_8.png,fly,None,0,497,497,497,,['right'],0,[0.00014209747314453125],,003,S004,2022_May_26_1525,DecoderConst_fMRI,59.95417283103554,
23_3_9.png,fly,None,0,498,498,498,,None,0,,,003,S004,2022_May_26_1525,DecoderConst_fMRI,59.95417283103554,
8_3_12.png,butterfly,right,0,499,499,499,,['right'],0,[9.107589721679688e-05],,003,S004,2022_May_26_1525,DecoderConst_fMRI,59.95417283103554,
8_3_13.png,butterfly,None,0,500,500,500,,['right'],0,[9.989738464355469e-05],,003,S004,2022_May_26_1525,DecoderConst_fMRI,59.95417283103554,
8_3_14.png,butterfly,None,0,501,501,501,,None,0,,,003,S004,2022_May_26_1525,DecoderConst_fMRI,59.95417283103554,
8_3_15.png,butterfly,None,0,502,502,502,,None,0,,,003,S004,2022_May_26_1525,DecoderConst_fMRI,59.95417283103554,
29_3_7.png,whale,right,0,503,503,503,,None,0,,,003,S004,2022_May_26_1525,DecoderConst_fMRI,59.95417283103554,
29_3_8.png,whale,None,0,504,504,504,,['right'],0,[9.393692016601562e-05],,003,S004,2022_May_26_1525,DecoderConst_fMRI,59.95417283103554,
29_3_9.png,whale,None,0,505,505,505,,None,0,,,003,S004,2022_May_26_1525,DecoderConst_fMRI,59.95417283103554,
29_3_10.png,whale,None,0,506,506,506,,['right'],0,[0.00013899803161621094],,003,S004,2022_May_26_1525,DecoderConst_fMRI,59.95417283103554,
30_3_7.png,dolphin,right,0,507,507,507,,None,0,,,003,S004,2022_May_26_1525,DecoderConst_fMRI,59.95417283103554,
30_3_8.png,dolphin,None,0,508,508,508,,None,0,,,003,S004,2022_May_26_1525,DecoderConst_fMRI,59.95417283103554,
30_3_9.png,dolphin,None,0,509,509,509,,['right'],0,[9.107589721679688e-05],,003,S004,2022_May_26_1525,DecoderConst_fMRI,59.95417283103554,
30_3_10.png,dolphin,None,0,510,510,510,,None,0,,,003,S004,2022_May_26_1525,DecoderConst_fMRI,59.95417283103554,
11_3_6.png,chicken,right,0,511,511,511,,None,0,,,003,S004,2022_May_26_1525,DecoderConst_fMRI,59.95417283103554,
11_3_7.png,chicken,None,0,512,512,512,,['right'],0,[0.00017404556274414062],,003,S004,2022_May_26_1525,DecoderConst_fMRI,59.95417283103554,
11_3_8.png,chicken,None,0,513,513,513,,None,0,,,003,S004,2022_May_26_1525,DecoderConst_fMRI,59.95417283103554,
11_3_9.png,chicken,None,0,514,514,514,,None,0,,,003,S004,2022_May_26_1525,DecoderConst_fMRI,59.95417283103554,
17_3_3.png,fish,right,0,515,515,515,,None,0,,,003,S004,2022_May_26_1525,DecoderConst_fMRI,59.95417283103554,
17_3_4.png,fish,None,0,516,516,516,,['right'],0,[0.00014090538024902344],,003,S004,2022_May_26_1525,DecoderConst_fMRI,59.95417283103554,
17_3_5.png,fish,None,0,517,517,517,,None,0,,,003,S004,2022_May_26_1525,DecoderConst_fMRI,59.95417283103554,
17_3_6.png,fish,None,0,518,518,518,,None,0,,,003,S004,2022_May_26_1525,DecoderConst_fMRI,59.95417283103554,
30_3_1.png,dolphin,right,0,519,519,519,,None,0,,,003,S004,2022_May_26_1525,DecoderConst_fMRI,59.95417283103554,
30_3_2.png,dolphin,None,0,520,520,520,,['right'],0,[0.00011610984802246094],,003,S004,2022_May_26_1525,DecoderConst_fMRI,59.95417283103554,
30_3_3.png,dolphin,None,0,521,521,521,,None,0,,,003,S004,2022_May_26_1525,DecoderConst_fMRI,59.95417283103554,
30_3_4.png,dolphin,None,0,522,522,522,,None,0,,,003,S004,2022_May_26_1525,DecoderConst_fMRI,59.95417283103554,
30_3_5.png,dolphin,None,0,523,523,523,,None,0,,,003,S004,2022_May_26_1525,DecoderConst_fMRI,59.95417283103554,
30_3_6.png,dolphin,None,0,524,524,524,,None,0,,,003,S004,2022_May_26_1525,DecoderConst_fMRI,59.95417283103554,
10_3_1.png,bat,right,0,525,525,525,,None,0,,,003,S004,2022_May_26_1525,DecoderConst_fMRI,59.95417283103554,
10_3_2.png,bat,None,0,526,526,526,,['right'],0,[0.00011491775512695312],,003,S004,2022_May_26_1525,DecoderConst_fMRI,59.95417283103554,
13_3_1.png,dog,right,0,527,527,527,,None,0,,,003,S004,2022_May_26_1525,DecoderConst_fMRI,59.95417283103554,
13_3_2.png,dog,None,0,528,528,528,,None,0,,,003,S004,2022_May_26_1525,DecoderConst_fMRI,59.95417283103554,
13_3_3.png,dog,None,0,529,529,529,,['right'],0,[0.00011992454528808594],,003,S004,2022_May_26_1525,DecoderConst_fMRI,59.95417283103554,
13_3_4.png,dog,None,0,530,530,530,,None,0,,,003,S004,2022_May_26_1525,DecoderConst_fMRI,59.95417283103554,
13_3_5.png,dog,None,0,531,531,531,,None,0,,,003,S004,2022_May_26_1525,DecoderConst_fMRI,59.95417283103554,
13_3_6.png,dog,None,0,532,532,532,,None,0,,,003,S004,2022_May_26_1525,DecoderConst_fMRI,59.95417283103554,
17_3_1.png,fish,right,0,533,533,533,,None,0,,,003,S004,2022_May_26_1525,DecoderConst_fMRI,59.95417283103554,
17_3_2.png,fish,None,0,534,534,534,,['right'],0,[0.00011897087097167969],,003,S004,2022_May_26_1525,DecoderConst_fMRI,59.95417283103554,
11_3_3.png,chicken,right,0,535,535,535,,None,0,,,003,S004,2022_May_26_1525,DecoderConst_fMRI,59.95417283103554,
11_3_4.png,chicken,None,0,536,536,536,,['right'],0,[0.0001049041748046875],,003,S004,2022_May_26_1525,DecoderConst_fMRI,59.95417283103554,
11_3_5.png,chicken,None,0,537,537,537,,None,0,,,003,S004,2022_May_26_1525,DecoderConst_fMRI,59.95417283103554,
8_3_3.png,butterfly,right,0,538,538,538,,None,0,,,003,S004,2022_May_26_1525,DecoderConst_fMRI,59.95417283103554,
8_3_4.png,butterfly,None,0,539,539,539,,['right'],0,[0.00011897087097167969],,003,S004,2022_May_26_1525,DecoderConst_fMRI,59.95417283103554,
8_3_5.png,butterfly,None,0,540,540,540,,None,0,,,003,S004,2022_May_26_1525,DecoderConst_fMRI,59.95417283103554,
4_3_7.png,ants,right,0,541,541,541,,None,0,,,003,S004,2022_May_26_1525,DecoderConst_fMRI,59.95417283103554,
4_3_8.png,ants,None,0,542,542,542,,['right'],0,[0.00016379356384277344],,003,S004,2022_May_26_1525,DecoderConst_fMRI,59.95417283103554,
4_3_9.png,ants,None,0,543,543,543,,None,0,,,003,S004,2022_May_26_1525,DecoderConst_fMRI,59.95417283103554,
4_3_10.png,ants,None,0,544,544,544,,None,0,,,003,S004,2022_May_26_1525,DecoderConst_fMRI,59.95417283103554,
34_3_1.png,scissor,right,0,545,545,545,,None,0,,,003,S004,2022_May_26_1525,DecoderConst_fMRI,59.95417283103554,
34_3_2.png,scissor,None,0,546,546,546,,['right'],0,[0.0001308917999267578],,003,S004,2022_May_26_1525,DecoderConst_fMRI,59.95417283103554,
34_3_3.png,scissor,None,0,547,547,547,,None,0,,,003,S004,2022_May_26_1525,DecoderConst_fMRI,59.95417283103554,
34_3_4.png,scissor,None,0,548,548,548,,None,0,,,003,S004,2022_May_26_1525,DecoderConst_fMRI,59.95417283103554,
34_3_5.png,scissor,None,0,549,549,549,,None,0,,,003,S004,2022_May_26_1525,DecoderConst_fMRI,59.95417283103554,
34_3_6.png,scissor,None,0,550,550,550,,None,0,,,003,S004,2022_May_26_1525,DecoderConst_fMRI,59.95417283103554,
22_3_1.png,catterpilar,right,0,551,551,551,,None,0,,,003,S004,2022_May_26_1525,DecoderConst_fMRI,59.95417283103554,
22_3_2.png,catterpilar,None,0,552,552,552,,['right'],0,[0.00026297569274902344],,003,S004,2022_May_26_1525,DecoderConst_fMRI,59.95417283103554,
22_3_3.png,catterpilar,None,0,553,553,553,,None,0,,,003,S004,2022_May_26_1525,DecoderConst_fMRI,59.95417283103554,
22_3_4.png,catterpilar,None,0,554,554,554,,None,0,,,003,S004,2022_May_26_1525,DecoderConst_fMRI,59.95417283103554,
2_3_14.png,frog,right,0,555,555,555,,None,0,,,003,S004,2022_May_26_1525,DecoderConst_fMRI,59.95417283103554,
2_3_15.png,frog,None,0,556,556,556,,['right'],0,[0.00011610984802246094],,003,S004,2022_May_26_1525,DecoderConst_fMRI,59.95417283103554,
21_3_1.png,grasshoper,right,0,557,557,557,,None,0,,,003,S004,2022_May_26_1525,DecoderConst_fMRI,59.95417283103554,
21_3_2.png,grasshoper,None,0,558,558,558,,None,0,,,003,S004,2022_May_26_1525,DecoderConst_fMRI,59.95417283103554,
21_3_3.png,grasshoper,None,0,559,559,559,,None,0,,,003,S004,2022_May_26_1525,DecoderConst_fMRI,59.95417283103554,
21_3_4.png,grasshoper,None,0,560,560,560,,None,0,,,003,S004,2022_May_26_1525,DecoderConst_fMRI,59.95417283103554,
21_3_5.png,grasshoper,None,0,561,561,561,,None,0,,,003,S004,2022_May_26_1525,DecoderConst_fMRI,59.95417283103554,
21_3_6.png,grasshoper,None,0,562,562,562,,None,0,,,003,S004,2022_May_26_1525,DecoderConst_fMRI,59.95417283103554,
39_3_1.png,umbrella,right,0,563,563,563,,None,0,,,003,S004,2022_May_26_1525,DecoderConst_fMRI,59.95417283103554,
39_3_2.png,umbrella,None,0,564,564,564,,['right'],0,[0.00010609626770019531],,003,S004,2022_May_26_1525,DecoderConst_fMRI,59.95417283103554,
39_3_3.png,umbrella,None,0,565,565,565,,None,0,,,003,S004,2022_May_26_1525,DecoderConst_fMRI,59.95417283103554,
39_3_4.png,umbrella,None,0,566,566,566,,None,0,,,003,S004,2022_May_26_1525,DecoderConst_fMRI,59.95417283103554,
39_3_5.png,umbrella,None,0,567,567,567,,None,0,,,003,S004,2022_May_26_1525,DecoderConst_fMRI,59.95417283103554,
39_3_6.png,umbrella,None,0,568,568,568,,None,0,,,003,S004,2022_May_26_1525,DecoderConst_fMRI,59.95417283103554,
27_3_1.png,rabbit,right,0,569,569,569,,None,0,,,003,S004,2022_May_26_1525,DecoderConst_fMRI,59.95417283103554,
27_3_2.png,rabbit,None,0,570,570,570,,['right'],0,[0.0002009868621826172],,003,S004,2022_May_26_1525,DecoderConst_fMRI,59.95417283103554,
27_3_3.png,rabbit,None,0,571,571,571,,None,0,,,003,S004,2022_May_26_1525,DecoderConst_fMRI,59.95417283103554,
40_3_1.png,chair,right,0,572,572,572,,None,0,,,003,S004,2022_May_26_1525,DecoderConst_fMRI,59.95417283103554,
40_3_2.png,chair,None,0,573,573,573,,['right'],0,[0.00017499923706054688],,003,S004,2022_May_26_1525,DecoderConst_fMRI,59.95417283103554,
40_3_3.png,chair,None,0,574,574,574,,None,0,,,003,S004,2022_May_26_1525,DecoderConst_fMRI,59.95417283103554,
40_3_4.png,chair,None,0,575,575,575,,None,0,,,003,S004,2022_May_26_1525,DecoderConst_fMRI,59.95417283103554,
40_3_5.png,chair,None,0,576,576,576,,None,0,,,003,S004,2022_May_26_1525,DecoderConst_fMRI,59.95417283103554,
40_3_6.png,chair,None,0,577,577,577,,None,0,,,003,S004,2022_May_26_1525,DecoderConst_fMRI,59.95417283103554,
35_3_1.png,hammer,right,0,578,578,578,,None,0,,,003,S004,2022_May_26_1525,DecoderConst_fMRI,59.95417283103554,
35_3_2.png,hammer,None,0,579,579,579,,['right'],0,[0.00013899803161621094],,003,S004,2022_May_26_1525,DecoderConst_fMRI,59.95417283103554,
35_3_3.png,hammer,None,0,580,580,580,,None,0,,,003,S004,2022_May_26_1525,DecoderConst_fMRI,59.95417283103554,
32_3_1.png,car,right,0,581,581,581,,None,0,,,003,S004,2022_May_26_1525,DecoderConst_fMRI,59.95417283103554,
32_3_2.png,car,None,0,582,582,582,,['right'],0,[0.0001480579376220703],,003,S004,2022_May_26_1525,DecoderConst_fMRI,59.95417283103554,
32_3_3.png,car,None,0,583,583,583,,None,0,,,003,S004,2022_May_26_1525,DecoderConst_fMRI,59.95417283103554,
32_3_4.png,car,None,0,584,584,584,,None,0,,,003,S004,2022_May_26_1525,DecoderConst_fMRI,59.95417283103554,
29_3_1.png,whale,right,0,585,585,585,,None,0,,,003,S004,2022_May_26_1525,DecoderConst_fMRI,59.95417283103554,
29_3_2.png,whale,None,0,586,586,586,,['right'],0,[0.0001418590545654297],,003,S004,2022_May_26_1525,DecoderConst_fMRI,59.95417283103554,
29_3_3.png,whale,None,0,587,587,587,,['right'],0,[0.00011777877807617188],,003,S004,2022_May_26_1525,DecoderConst_fMRI,59.95417283103554,
29_3_4.png,whale,None,0,588,588,588,,None,0,,,003,S004,2022_May_26_1525,DecoderConst_fMRI,59.95417283103554,
29_3_5.png,whale,None,0,589,589,589,,None,0,,,003,S004,2022_May_26_1525,DecoderConst_fMRI,59.95417283103554,
29_3_6.png,whale,None,0,590,590,590,,None,0,,,003,S004,2022_May_26_1525,DecoderConst_fMRI,59.95417283103554,
26_3_1.png,sheep,right,0,591,591,591,,None,0,,,003,S004,2022_May_26_1525,DecoderConst_fMRI,59.95417283103554,
26_3_2.png,sheep,None,0,592,592,592,,['right'],0,[0.00014090538024902344],,003,S004,2022_May_26_1525,DecoderConst_fMRI,59.95417283103554,
26_3_3.png,sheep,None,0,593,593,593,,None,0,,,003,S004,2022_May_26_1525,DecoderConst_fMRI,59.95417283103554,
23_3_1.png,fly,right,0,594,594,594,,None,0,,,003,S004,2022_May_26_1525,DecoderConst_fMRI,59.95417283103554,
23_3_2.png,fly,None,0,595,595,595,,['right'],0,[8.821487426757812e-05],,003,S004,2022_May_26_1525,DecoderConst_fMRI,59.95417283103554,
23_3_3.png,fly,None,0,596,596,596,,None,0,,,003,S004,2022_May_26_1525,DecoderConst_fMRI,59.95417283103554,
23_3_4.png,fly,None,0,597,597,597,,None,0,,,003,S004,2022_May_26_1525,DecoderConst_fMRI,59.95417283103554,
23_3_5.png,fly,None,0,598,598,598,,None,0,,,003,S004,2022_May_26_1525,DecoderConst_fMRI,59.95417283103554,
23_3_6.png,fly,None,0,599,599,599,,None,0,,,003,S004,2022_May_26_1525,DecoderConst_fMRI,59.95417283103554,
,,,,,,,,,,,None,003,S004,2022_May_26_1525,DecoderConst_fMRI,59.95417283103554,
