Stimuli,Condition,corrAns,trials.thisRepN,trials.thisTrialN,trials.thisN,trials.thisIndex,key_resp_3.keys,key_resp_4.keys,key_resp_4.corr,key_resp_4.rt,key_resp_2.keys,session,participant,date,exp_name,frameRate,
,,,,,,,None,,,,,001,S005,2022_May_26_1614,DecoderConst_fMRI,59.98546952318298,
7_1_5.png,bee,None,0,0,0,0,,None,0,,,001,S005,2022_May_26_1614,DecoderConst_fMRI,59.98546952318298,
7_1_8.png,bee,None,0,1,1,1,,None,0,,,001,S005,2022_May_26_1614,DecoderConst_fMRI,59.98546952318298,
7_1_2.png,bee,None,0,2,2,2,,['t'],0,[0.00021600723266601562],,001,S005,2022_May_26_1614,DecoderConst_fMRI,59.98546952318298,
7_1_12.png,bee,None,0,3,3,3,,None,0,,,001,S005,2022_May_26_1614,DecoderConst_fMRI,59.98546952318298,
36_1_4.png,key,right,0,4,4,4,,['t'],0,[0.00011587142944335938],,001,S005,2022_May_26_1614,DecoderConst_fMRI,59.98546952318298,
36_1_7.png,key,None,0,5,5,5,,None,0,,,001,S005,2022_May_26_1614,DecoderConst_fMRI,59.98546952318298,
36_1_11.png,key,None,0,6,6,6,,None,0,,,001,S005,2022_May_26_1614,DecoderConst_fMRI,59.98546952318298,
36_1_14.png,key,None,0,7,7,7,,['t'],0,[0.00014901161193847656],,001,S005,2022_May_26_1614,DecoderConst_fMRI,59.98546952318298,
36_1_5.png,key,None,0,8,8,8,,None,0,,,001,S005,2022_May_26_1614,DecoderConst_fMRI,59.98546952318298,
36_1_2.png,key,None,0,9,9,9,,None,0,,,001,S005,2022_May_26_1614,DecoderConst_fMRI,59.98546952318298,
30_1_10.png,dolphin,right,0,10,10,10,,None,0,,,001,S005,2022_May_26_1614,DecoderConst_fMRI,59.98546952318298,
30_1_8.png,dolphin,None,0,11,11,11,,None,0,,,001,S005,2022_May_26_1614,DecoderConst_fMRI,59.98546952318298,
3_1_3.png,cockroach,right,0,12,12,12,,None,0,,,001,S005,2022_May_26_1614,DecoderConst_fMRI,59.98546952318298,
3_1_7.png,cockroach,None,0,13,13,13,,None,0,,,001,S005,2022_May_26_1614,DecoderConst_fMRI,59.98546952318298,
3_1_10.png,cockroach,None,0,14,14,14,,None,0,,,001,S005,2022_May_26_1614,DecoderConst_fMRI,59.98546952318298,
3_1_13.png,cockroach,None,0,15,15,15,,None,0,,,001,S005,2022_May_26_1614,DecoderConst_fMRI,59.98546952318298,
3_1_9.png,cockroach,None,0,16,16,16,,None,0,,,001,S005,2022_May_26_1614,DecoderConst_fMRI,59.98546952318298,
3_1_5.png,cockroach,None,0,17,17,17,,None,0,,,001,S005,2022_May_26_1614,DecoderConst_fMRI,59.98546952318298,
11_1_1.png,chicken,right,0,18,18,18,,None,0,,,001,S005,2022_May_26_1614,DecoderConst_fMRI,59.98546952318298,
11_1_2.png,chicken,None,0,19,19,19,,None,0,,,001,S005,2022_May_26_1614,DecoderConst_fMRI,59.98546952318298,
11_1_3.png,chicken,None,0,20,20,20,,None,0,,,001,S005,2022_May_26_1614,DecoderConst_fMRI,59.98546952318298,
5_1_1.png,spider,right,0,21,21,21,,None,0,,,001,S005,2022_May_26_1614,DecoderConst_fMRI,59.98546952318298,
5_1_2.png,spider,None,0,22,22,22,,None,0,,,001,S005,2022_May_26_1614,DecoderConst_fMRI,59.98546952318298,
32_1_13.png,car,right,0,23,23,23,,None,0,,,001,S005,2022_May_26_1614,DecoderConst_fMRI,59.98546952318298,
32_1_14.png,car,None,0,24,24,24,,None,0,,,001,S005,2022_May_26_1614,DecoderConst_fMRI,59.98546952318298,
32_1_15.png,car,None,0,25,25,25,,None,0,,,001,S005,2022_May_26_1614,DecoderConst_fMRI,59.98546952318298,
20_1_1.png,beatle,right,0,26,26,26,,None,0,,,001,S005,2022_May_26_1614,DecoderConst_fMRI,59.98546952318298,
20_1_14.png,beatle,None,0,27,27,27,,None,0,,,001,S005,2022_May_26_1614,DecoderConst_fMRI,59.98546952318298,
20_1_3.png,beatle,None,0,28,28,28,,None,0,,,001,S005,2022_May_26_1614,DecoderConst_fMRI,59.98546952318298,
20_1_11.png,beatle,None,0,29,29,29,,None,0,,,001,S005,2022_May_26_1614,DecoderConst_fMRI,59.98546952318298,
20_1_5.png,beatle,None,0,30,30,30,,None,0,,,001,S005,2022_May_26_1614,DecoderConst_fMRI,59.98546952318298,
20_1_6.png,beatle,None,0,31,31,31,,None,0,,,001,S005,2022_May_26_1614,DecoderConst_fMRI,59.98546952318298,
24_1_3.png,peacock,right,0,32,32,32,,None,0,,,001,S005,2022_May_26_1614,DecoderConst_fMRI,59.98546952318298,
24_1_7.png,peacock,None,0,33,33,33,,None,0,,,001,S005,2022_May_26_1614,DecoderConst_fMRI,59.98546952318298,
24_1_10.png,peacock,None,0,34,34,34,,None,0,,,001,S005,2022_May_26_1614,DecoderConst_fMRI,59.98546952318298,
24_1_13.png,peacock,None,0,35,35,35,,None,0,,,001,S005,2022_May_26_1614,DecoderConst_fMRI,59.98546952318298,
24_1_15.png,peacock,None,0,36,36,36,,None,0,,,001,S005,2022_May_26_1614,DecoderConst_fMRI,59.98546952318298,
24_1_6.png,peacock,None,0,37,37,37,,None,0,,,001,S005,2022_May_26_1614,DecoderConst_fMRI,59.98546952318298,
19_1_1.png,turtle,right,0,38,38,38,,None,0,,,001,S005,2022_May_26_1614,DecoderConst_fMRI,59.98546952318298,
19_1_2.png,turtle,None,0,39,39,39,,None,0,,,001,S005,2022_May_26_1614,DecoderConst_fMRI,59.98546952318298,
17_1_1.png,fish,right,0,40,40,40,,None,0,,,001,S005,2022_May_26_1614,DecoderConst_fMRI,59.98546952318298,
17_1_2.png,fish,None,0,41,41,41,,None,0,,,001,S005,2022_May_26_1614,DecoderConst_fMRI,59.98546952318298,
33_1_1.png,bicycle,right,0,42,42,42,,None,0,,,001,S005,2022_May_26_1614,DecoderConst_fMRI,59.98546952318298,
33_1_2.png,bicycle,None,0,43,43,43,,None,0,,,001,S005,2022_May_26_1614,DecoderConst_fMRI,59.98546952318298,
33_1_3.png,bicycle,None,0,44,44,44,,None,0,,,001,S005,2022_May_26_1614,DecoderConst_fMRI,59.98546952318298,
33_1_4.png,bicycle,None,0,45,45,45,,None,0,,,001,S005,2022_May_26_1614,DecoderConst_fMRI,59.98546952318298,
31_1_1.png,airplane,right,0,46,46,46,,None,0,,,001,S005,2022_May_26_1614,DecoderConst_fMRI,59.98546952318298,
31_1_2.png,airplane,None,0,47,47,47,,None,0,,,001,S005,2022_May_26_1614,DecoderConst_fMRI,59.98546952318298,
31_1_3.png,airplane,None,0,48,48,48,,None,0,,,001,S005,2022_May_26_1614,DecoderConst_fMRI,59.98546952318298,
34_1_1.png,scissor,right,0,49,49,49,,None,0,,,001,S005,2022_May_26_1614,DecoderConst_fMRI,59.98546952318298,
34_1_2.png,scissor,None,0,50,50,50,,None,0,,,001,S005,2022_May_26_1614,DecoderConst_fMRI,59.98546952318298,
13_1_1.png,dog,right,0,51,51,51,,None,0,,,001,S005,2022_May_26_1614,DecoderConst_fMRI,59.98546952318298,
13_1_2.png,dog,None,0,52,52,52,,None,0,,,001,S005,2022_May_26_1614,DecoderConst_fMRI,59.98546952318298,
18_1_1.png,gecko,right,0,53,53,53,,None,0,,,001,S005,2022_May_26_1614,DecoderConst_fMRI,59.98546952318298,
18_1_2.png,gecko,None,0,54,54,54,,None,0,,,001,S005,2022_May_26_1614,DecoderConst_fMRI,59.98546952318298,
18_1_3.png,gecko,None,0,55,55,55,,None,0,,,001,S005,2022_May_26_1614,DecoderConst_fMRI,59.98546952318298,
18_1_4.png,gecko,None,0,56,56,56,,None,0,,,001,S005,2022_May_26_1614,DecoderConst_fMRI,59.98546952318298,
18_1_5.png,gecko,None,0,57,57,57,,None,0,,,001,S005,2022_May_26_1614,DecoderConst_fMRI,59.98546952318298,
18_1_6.png,gecko,None,0,58,58,58,,None,0,,,001,S005,2022_May_26_1614,DecoderConst_fMRI,59.98546952318298,
27_1_1.png,rabbit,right,0,59,59,59,,None,0,,,001,S005,2022_May_26_1614,DecoderConst_fMRI,59.98546952318298,
27_1_2.png,rabbit,None,0,60,60,60,,None,0,,,001,S005,2022_May_26_1614,DecoderConst_fMRI,59.98546952318298,
27_1_3.png,rabbit,None,0,61,61,61,,None,0,,,001,S005,2022_May_26_1614,DecoderConst_fMRI,59.98546952318298,
27_1_4.png,rabbit,None,0,62,62,62,,None,0,,,001,S005,2022_May_26_1614,DecoderConst_fMRI,59.98546952318298,
12_1_1.png,mouse,right,0,63,63,63,,None,0,,,001,S005,2022_May_26_1614,DecoderConst_fMRI,59.98546952318298,
12_1_2.png,mouse,None,0,64,64,64,,None,0,,,001,S005,2022_May_26_1614,DecoderConst_fMRI,59.98546952318298,
12_1_3.png,mouse,None,0,65,65,65,,None,0,,,001,S005,2022_May_26_1614,DecoderConst_fMRI,59.98546952318298,
12_1_4.png,mouse,None,0,66,66,66,,None,0,,,001,S005,2022_May_26_1614,DecoderConst_fMRI,59.98546952318298,
12_1_5.png,mouse,None,0,67,67,67,,None,0,,,001,S005,2022_May_26_1614,DecoderConst_fMRI,59.98546952318298,
12_1_6.png,mouse,None,0,68,68,68,,None,0,,,001,S005,2022_May_26_1614,DecoderConst_fMRI,59.98546952318298,
29_1_1.png,whale,right,0,69,69,69,,None,0,,,001,S005,2022_May_26_1614,DecoderConst_fMRI,59.98546952318298,
29_1_2.png,whale,None,0,70,70,70,,None,0,,,001,S005,2022_May_26_1614,DecoderConst_fMRI,59.98546952318298,
29_1_3.png,whale,None,0,71,71,71,,None,0,,,001,S005,2022_May_26_1614,DecoderConst_fMRI,59.98546952318298,
35_1_1.png,hammer,right,0,72,72,72,,None,0,,,001,S005,2022_May_26_1614,DecoderConst_fMRI,59.98546952318298,
35_1_2.png,hammer,None,0,73,73,73,,None,0,,,001,S005,2022_May_26_1614,DecoderConst_fMRI,59.98546952318298,
35_1_3.png,hammer,None,0,74,74,74,,None,0,,,001,S005,2022_May_26_1614,DecoderConst_fMRI,59.98546952318298,
35_1_4.png,hammer,None,0,75,75,75,,None,0,,,001,S005,2022_May_26_1614,DecoderConst_fMRI,59.98546952318298,
35_1_5.png,hammer,None,0,76,76,76,,None,0,,,001,S005,2022_May_26_1614,DecoderConst_fMRI,59.98546952318298,
35_1_6.png,hammer,None,0,77,77,77,,None,0,,,001,S005,2022_May_26_1614,DecoderConst_fMRI,59.98546952318298,
15_1_1.png,horse,right,0,78,78,78,,None,0,,,001,S005,2022_May_26_1614,DecoderConst_fMRI,59.98546952318298,
15_1_2.png,horse,None,0,79,79,79,,None,0,,,001,S005,2022_May_26_1614,DecoderConst_fMRI,59.98546952318298,
4_1_1.png,ants,right,0,80,80,80,,None,0,,,001,S005,2022_May_26_1614,DecoderConst_fMRI,59.98546952318298,
4_1_2.png,ants,None,0,81,81,81,,None,0,,,001,S005,2022_May_26_1614,DecoderConst_fMRI,59.98546952318298,
40_1_1.png,chair,right,0,82,82,82,,None,0,,,001,S005,2022_May_26_1614,DecoderConst_fMRI,59.98546952318298,
40_1_2.png,chair,None,0,83,83,83,,None,0,,,001,S005,2022_May_26_1614,DecoderConst_fMRI,59.98546952318298,
40_1_3.png,chair,None,0,84,84,84,,None,0,,,001,S005,2022_May_26_1614,DecoderConst_fMRI,59.98546952318298,
40_1_4.png,chair,None,0,85,85,85,,None,0,,,001,S005,2022_May_26_1614,DecoderConst_fMRI,59.98546952318298,
39_1_3.png,umbrella,right,0,86,86,86,,None,0,,,001,S005,2022_May_26_1614,DecoderConst_fMRI,59.98546952318298,
39_1_4.png,umbrella,None,0,87,87,87,,None,0,,,001,S005,2022_May_26_1614,DecoderConst_fMRI,59.98546952318298,
39_1_5.png,umbrella,None,0,88,88,88,,None,0,,,001,S005,2022_May_26_1614,DecoderConst_fMRI,59.98546952318298,
39_1_6.png,umbrella,None,0,89,89,89,,None,0,,,001,S005,2022_May_26_1614,DecoderConst_fMRI,59.98546952318298,
39_1_7.png,umbrella,None,0,90,90,90,,None,0,,,001,S005,2022_May_26_1614,DecoderConst_fMRI,59.98546952318298,
39_1_8.png,umbrella,None,0,91,91,91,,None,0,,,001,S005,2022_May_26_1614,DecoderConst_fMRI,59.98546952318298,
7_1_4.png,bee,right,0,92,92,92,,None,0,,,001,S005,2022_May_26_1614,DecoderConst_fMRI,59.98546952318298,
7_1_9.png,bee,None,0,93,93,93,,None,0,,,001,S005,2022_May_26_1614,DecoderConst_fMRI,59.98546952318298,
30_1_5.png,dolphin,right,0,94,94,94,,None,0,,,001,S005,2022_May_26_1614,DecoderConst_fMRI,59.98546952318298,
30_1_3.png,dolphin,None,0,95,95,95,,None,0,,,001,S005,2022_May_26_1614,DecoderConst_fMRI,59.98546952318298,
30_1_1.png,dolphin,None,0,96,96,96,,None,0,,,001,S005,2022_May_26_1614,DecoderConst_fMRI,59.98546952318298,
11_1_4.png,chicken,right,0,97,97,97,,None,0,,,001,S005,2022_May_26_1614,DecoderConst_fMRI,59.98546952318298,
11_1_11.png,chicken,None,0,98,98,98,,None,0,,,001,S005,2022_May_26_1614,DecoderConst_fMRI,59.98546952318298,
11_1_12.png,chicken,None,0,99,99,99,,None,0,,,001,S005,2022_May_26_1614,DecoderConst_fMRI,59.98546952318298,
11_1_7.png,chicken,None,0,100,100,100,,None,0,,,001,S005,2022_May_26_1614,DecoderConst_fMRI,59.98546952318298,
36_1_13.png,key,right,0,101,101,101,,None,0,,,001,S005,2022_May_26_1614,DecoderConst_fMRI,59.98546952318298,
36_1_9.png,key,None,0,102,102,102,,None,0,,,001,S005,2022_May_26_1614,DecoderConst_fMRI,59.98546952318298,
4_1_3.png,ants,right,0,103,103,103,,None,0,,,001,S005,2022_May_26_1614,DecoderConst_fMRI,59.98546952318298,
4_1_4.png,ants,None,0,104,104,104,,None,0,,,001,S005,2022_May_26_1614,DecoderConst_fMRI,59.98546952318298,
4_1_5.png,ants,None,0,105,105,105,,None,0,,,001,S005,2022_May_26_1614,DecoderConst_fMRI,59.98546952318298,
12_1_7.png,mouse,right,0,106,106,106,,None,0,,,001,S005,2022_May_26_1614,DecoderConst_fMRI,59.98546952318298,
12_1_8.png,mouse,None,0,107,107,107,,None,0,,,001,S005,2022_May_26_1614,DecoderConst_fMRI,59.98546952318298,
12_1_9.png,mouse,None,0,108,108,108,,None,0,,,001,S005,2022_May_26_1614,DecoderConst_fMRI,59.98546952318298,
12_1_10.png,mouse,None,0,109,109,109,,None,0,,,001,S005,2022_May_26_1614,DecoderConst_fMRI,59.98546952318298,
3_1_4.png,cockroach,right,0,110,110,110,,None,0,,,001,S005,2022_May_26_1614,DecoderConst_fMRI,59.98546952318298,
3_1_1.png,cockroach,None,0,111,111,111,,None,0,,,001,S005,2022_May_26_1614,DecoderConst_fMRI,59.98546952318298,
3_1_6.png,cockroach,None,0,112,112,112,,None,0,,,001,S005,2022_May_26_1614,DecoderConst_fMRI,59.98546952318298,
3_1_11.png,cockroach,None,0,113,113,113,,None,0,,,001,S005,2022_May_26_1614,DecoderConst_fMRI,59.98546952318298,
18_1_7.png,gecko,right,0,114,114,114,,None,0,,,001,S005,2022_May_26_1614,DecoderConst_fMRI,59.98546952318298,
18_1_8.png,gecko,None,0,115,115,115,,None,0,,,001,S005,2022_May_26_1614,DecoderConst_fMRI,59.98546952318298,
18_1_9.png,gecko,None,0,116,116,116,,None,0,,,001,S005,2022_May_26_1614,DecoderConst_fMRI,59.98546952318298,
5_1_3.png,spider,right,0,117,117,117,,None,0,,,001,S005,2022_May_26_1614,DecoderConst_fMRI,59.98546952318298,
5_1_4.png,spider,None,0,118,118,118,,None,0,,,001,S005,2022_May_26_1614,DecoderConst_fMRI,59.98546952318298,
5_1_5.png,spider,None,0,119,119,119,,None,0,,,001,S005,2022_May_26_1614,DecoderConst_fMRI,59.98546952318298,
32_1_1.png,car,right,0,120,120,120,,None,0,,,001,S005,2022_May_26_1614,DecoderConst_fMRI,59.98546952318298,
32_1_2.png,car,None,0,121,121,121,,None,0,,,001,S005,2022_May_26_1614,DecoderConst_fMRI,59.98546952318298,
24_1_4.png,peacock,right,0,122,122,122,,None,0,,,001,S005,2022_May_26_1614,DecoderConst_fMRI,59.98546952318298,
24_1_2.png,peacock,None,0,123,123,123,,None,0,,,001,S005,2022_May_26_1614,DecoderConst_fMRI,59.98546952318298,
20_1_7.png,beatle,right,0,124,124,124,,None,0,,,001,S005,2022_May_26_1614,DecoderConst_fMRI,59.98546952318298,
20_1_13.png,beatle,None,0,125,125,125,,None,0,,,001,S005,2022_May_26_1614,DecoderConst_fMRI,59.98546952318298,
20_1_9.png,beatle,None,0,126,126,126,,None,0,,,001,S005,2022_May_26_1614,DecoderConst_fMRI,59.98546952318298,
33_1_5.png,bicycle,right,0,127,127,127,,None,0,,,001,S005,2022_May_26_1614,DecoderConst_fMRI,59.98546952318298,
33_1_6.png,bicycle,None,0,128,128,128,,None,0,,,001,S005,2022_May_26_1614,DecoderConst_fMRI,59.98546952318298,
33_1_7.png,bicycle,None,0,129,129,129,,None,0,,,001,S005,2022_May_26_1614,DecoderConst_fMRI,59.98546952318298,
33_1_8.png,bicycle,None,0,130,130,130,,None,0,,,001,S005,2022_May_26_1614,DecoderConst_fMRI,59.98546952318298,
33_1_9.png,bicycle,None,0,131,131,131,,None,0,,,001,S005,2022_May_26_1614,DecoderConst_fMRI,59.98546952318298,
33_1_10.png,bicycle,None,0,132,132,132,,None,0,,,001,S005,2022_May_26_1614,DecoderConst_fMRI,59.98546952318298,
13_1_7.png,dog,right,0,133,133,133,,None,0,,,001,S005,2022_May_26_1614,DecoderConst_fMRI,59.98546952318298,
13_1_8.png,dog,None,0,134,134,134,,None,0,,,001,S005,2022_May_26_1614,DecoderConst_fMRI,59.98546952318298,
13_1_9.png,dog,None,0,135,135,135,,None,0,,,001,S005,2022_May_26_1614,DecoderConst_fMRI,59.98546952318298,
31_1_4.png,airplane,right,0,136,136,136,,None,0,,,001,S005,2022_May_26_1614,DecoderConst_fMRI,59.98546952318298,
31_1_5.png,airplane,None,0,137,137,137,,None,0,,,001,S005,2022_May_26_1614,DecoderConst_fMRI,59.98546952318298,
31_1_6.png,airplane,None,0,138,138,138,,None,0,,,001,S005,2022_May_26_1614,DecoderConst_fMRI,59.98546952318298,
31_1_7.png,airplane,None,0,139,139,139,,None,0,,,001,S005,2022_May_26_1614,DecoderConst_fMRI,59.98546952318298,
17_1_3.png,fish,right,0,140,140,140,,None,0,,,001,S005,2022_May_26_1614,DecoderConst_fMRI,59.98546952318298,
17_1_4.png,fish,None,0,141,141,141,,None,0,,,001,S005,2022_May_26_1614,DecoderConst_fMRI,59.98546952318298,
17_1_5.png,fish,None,0,142,142,142,,None,0,,,001,S005,2022_May_26_1614,DecoderConst_fMRI,59.98546952318298,
19_1_3.png,turtle,right,0,143,143,143,,None,0,,,001,S005,2022_May_26_1614,DecoderConst_fMRI,59.98546952318298,
19_1_4.png,turtle,None,0,144,144,144,,None,0,,,001,S005,2022_May_26_1614,DecoderConst_fMRI,59.98546952318298,
19_1_5.png,turtle,None,0,145,145,145,,None,0,,,001,S005,2022_May_26_1614,DecoderConst_fMRI,59.98546952318298,
19_1_6.png,turtle,None,0,146,146,146,,None,0,,,001,S005,2022_May_26_1614,DecoderConst_fMRI,59.98546952318298,
19_1_7.png,turtle,None,0,147,147,147,,None,0,,,001,S005,2022_May_26_1614,DecoderConst_fMRI,59.98546952318298,
19_1_8.png,turtle,None,0,148,148,148,,None,0,,,001,S005,2022_May_26_1614,DecoderConst_fMRI,59.98546952318298,
34_1_3.png,scissor,right,0,149,149,149,,None,0,,,001,S005,2022_May_26_1614,DecoderConst_fMRI,59.98546952318298,
34_1_4.png,scissor,None,0,150,150,150,,None,0,,,001,S005,2022_May_26_1614,DecoderConst_fMRI,59.98546952318298,
34_1_5.png,scissor,None,0,151,151,151,,None,0,,,001,S005,2022_May_26_1614,DecoderConst_fMRI,59.98546952318298,
34_1_6.png,scissor,None,0,152,152,152,,None,0,,,001,S005,2022_May_26_1614,DecoderConst_fMRI,59.98546952318298,
34_1_7.png,scissor,None,0,153,153,153,,None,0,,,001,S005,2022_May_26_1614,DecoderConst_fMRI,59.98546952318298,
34_1_8.png,scissor,None,0,154,154,154,,None,0,,,001,S005,2022_May_26_1614,DecoderConst_fMRI,59.98546952318298,
30_1_6.png,dolphin,right,0,155,155,155,,None,0,,,001,S005,2022_May_26_1614,DecoderConst_fMRI,59.98546952318298,
30_1_7.png,dolphin,None,0,156,156,156,,None,0,,,001,S005,2022_May_26_1614,DecoderConst_fMRI,59.98546952318298,
30_1_4.png,dolphin,None,0,157,157,157,,None,0,,,001,S005,2022_May_26_1614,DecoderConst_fMRI,59.98546952318298,
30_1_14.png,dolphin,None,0,158,158,158,,None,0,,,001,S005,2022_May_26_1614,DecoderConst_fMRI,59.98546952318298,
27_1_5.png,rabbit,right,0,159,159,159,,None,0,,,001,S005,2022_May_26_1614,DecoderConst_fMRI,59.98546952318298,
27_1_6.png,rabbit,None,0,160,160,160,,None,0,,,001,S005,2022_May_26_1614,DecoderConst_fMRI,59.98546952318298,
27_1_7.png,rabbit,None,0,161,161,161,,None,0,,,001,S005,2022_May_26_1614,DecoderConst_fMRI,59.98546952318298,
27_1_8.png,rabbit,None,0,162,162,162,,None,0,,,001,S005,2022_May_26_1614,DecoderConst_fMRI,59.98546952318298,
27_1_9.png,rabbit,None,0,163,163,163,,None,0,,,001,S005,2022_May_26_1614,DecoderConst_fMRI,59.98546952318298,
27_1_10.png,rabbit,None,0,164,164,164,,None,0,,,001,S005,2022_May_26_1614,DecoderConst_fMRI,59.98546952318298,
29_1_4.png,whale,right,0,165,165,165,,None,0,,,001,S005,2022_May_26_1614,DecoderConst_fMRI,59.98546952318298,
29_1_5.png,whale,None,0,166,166,166,,None,0,,,001,S005,2022_May_26_1614,DecoderConst_fMRI,59.98546952318298,
3_1_14.png,cockroach,right,0,167,167,167,,None,0,,,001,S005,2022_May_26_1614,DecoderConst_fMRI,59.98546952318298,
3_1_12.png,cockroach,None,0,168,168,168,,None,0,,,001,S005,2022_May_26_1614,DecoderConst_fMRI,59.98546952318298,
11_1_8.png,chicken,right,0,169,169,169,,None,0,,,001,S005,2022_May_26_1614,DecoderConst_fMRI,59.98546952318298,
11_1_9.png,chicken,None,0,170,170,170,,None,0,,,001,S005,2022_May_26_1614,DecoderConst_fMRI,59.98546952318298,
11_1_10.png,chicken,None,0,171,171,171,,None,0,,,001,S005,2022_May_26_1614,DecoderConst_fMRI,59.98546952318298,
11_1_5.png,chicken,None,0,172,172,172,,None,0,,,001,S005,2022_May_26_1614,DecoderConst_fMRI,59.98546952318298,
11_1_6.png,chicken,None,0,173,173,173,,None,0,,,001,S005,2022_May_26_1614,DecoderConst_fMRI,59.98546952318298,
11_1_13.png,chicken,None,0,174,174,174,,None,0,,,001,S005,2022_May_26_1614,DecoderConst_fMRI,59.98546952318298,
35_1_7.png,hammer,right,0,175,175,175,,None,0,,,001,S005,2022_May_26_1614,DecoderConst_fMRI,59.98546952318298,
35_1_8.png,hammer,None,0,176,176,176,,None,0,,,001,S005,2022_May_26_1614,DecoderConst_fMRI,59.98546952318298,
35_1_9.png,hammer,None,0,177,177,177,,None,0,,,001,S005,2022_May_26_1614,DecoderConst_fMRI,59.98546952318298,
15_1_3.png,horse,right,0,178,178,178,,None,0,,,001,S005,2022_May_26_1614,DecoderConst_fMRI,59.98546952318298,
15_1_4.png,horse,None,0,179,179,179,,None,0,,,001,S005,2022_May_26_1614,DecoderConst_fMRI,59.98546952318298,
15_1_5.png,horse,None,0,180,180,180,,None,0,,,001,S005,2022_May_26_1614,DecoderConst_fMRI,59.98546952318298,
36_1_8.png,key,right,0,181,181,181,,None,0,,,001,S005,2022_May_26_1614,DecoderConst_fMRI,59.98546952318298,
36_1_6.png,key,None,0,182,182,182,,None,0,,,001,S005,2022_May_26_1614,DecoderConst_fMRI,59.98546952318298,
36_1_1.png,key,None,0,183,183,183,,None,0,,,001,S005,2022_May_26_1614,DecoderConst_fMRI,59.98546952318298,
36_1_10.png,key,None,0,184,184,184,,None,0,,,001,S005,2022_May_26_1614,DecoderConst_fMRI,59.98546952318298,
4_1_6.png,ants,right,0,185,185,185,,None,0,,,001,S005,2022_May_26_1614,DecoderConst_fMRI,59.98546952318298,
4_1_7.png,ants,None,0,186,186,186,,None,0,,,001,S005,2022_May_26_1614,DecoderConst_fMRI,59.98546952318298,
4_1_8.png,ants,None,0,187,187,187,,None,0,,,001,S005,2022_May_26_1614,DecoderConst_fMRI,59.98546952318298,
4_1_9.png,ants,None,0,188,188,188,,None,0,,,001,S005,2022_May_26_1614,DecoderConst_fMRI,59.98546952318298,
4_1_10.png,ants,None,0,189,189,189,,None,0,,,001,S005,2022_May_26_1614,DecoderConst_fMRI,59.98546952318298,
4_1_11.png,ants,None,0,190,190,190,,None,0,,,001,S005,2022_May_26_1614,DecoderConst_fMRI,59.98546952318298,
7_1_13.png,bee,right,0,191,191,191,,None,0,,,001,S005,2022_May_26_1614,DecoderConst_fMRI,59.98546952318298,
7_1_7.png,bee,None,0,192,192,192,,None,0,,,001,S005,2022_May_26_1614,DecoderConst_fMRI,59.98546952318298,
7_1_10.png,bee,None,0,193,193,193,,None,0,,,001,S005,2022_May_26_1614,DecoderConst_fMRI,59.98546952318298,
7_1_1.png,bee,None,0,194,194,194,,None,0,,,001,S005,2022_May_26_1614,DecoderConst_fMRI,59.98546952318298,
7_1_14.png,bee,None,0,195,195,195,,None,0,,,001,S005,2022_May_26_1614,DecoderConst_fMRI,59.98546952318298,
7_1_11.png,bee,None,0,196,196,196,,None,0,,,001,S005,2022_May_26_1614,DecoderConst_fMRI,59.98546952318298,
40_1_11.png,chair,right,0,197,197,197,,None,0,,,001,S005,2022_May_26_1614,DecoderConst_fMRI,59.98546952318298,
40_1_12.png,chair,None,0,198,198,198,,None,0,,,001,S005,2022_May_26_1614,DecoderConst_fMRI,59.98546952318298,
40_1_13.png,chair,None,0,199,199,199,,None,0,,,001,S005,2022_May_26_1614,DecoderConst_fMRI,59.98546952318298,
39_1_1.png,umbrella,right,0,200,200,200,,None,0,,,001,S005,2022_May_26_1614,DecoderConst_fMRI,59.98546952318298,
39_1_2.png,umbrella,None,0,201,201,201,,None,0,,,001,S005,2022_May_26_1614,DecoderConst_fMRI,59.98546952318298,
12_1_11.png,mouse,right,0,202,202,202,,None,0,,,001,S005,2022_May_26_1614,DecoderConst_fMRI,59.98546952318298,
12_1_12.png,mouse,None,0,203,203,203,,None,0,,,001,S005,2022_May_26_1614,DecoderConst_fMRI,59.98546952318298,
12_1_13.png,mouse,None,0,204,204,204,,None,0,,,001,S005,2022_May_26_1614,DecoderConst_fMRI,59.98546952318298,
27_1_11.png,rabbit,right,0,205,205,205,,None,0,,,001,S005,2022_May_26_1614,DecoderConst_fMRI,59.98546952318298,
27_1_12.png,rabbit,None,0,206,206,206,,None,0,,,001,S005,2022_May_26_1614,DecoderConst_fMRI,59.98546952318298,
27_1_13.png,rabbit,None,0,207,207,207,,None,0,,,001,S005,2022_May_26_1614,DecoderConst_fMRI,59.98546952318298,
18_1_10.png,gecko,right,0,208,208,208,,None,0,,,001,S005,2022_May_26_1614,DecoderConst_fMRI,59.98546952318298,
18_1_11.png,gecko,None,0,209,209,209,,None,0,,,001,S005,2022_May_26_1614,DecoderConst_fMRI,59.98546952318298,
18_1_12.png,gecko,None,0,210,210,210,,None,0,,,001,S005,2022_May_26_1614,DecoderConst_fMRI,59.98546952318298,
18_1_13.png,gecko,None,0,211,211,211,,None,0,,,001,S005,2022_May_26_1614,DecoderConst_fMRI,59.98546952318298,
13_1_3.png,dog,right,0,212,212,212,,None,0,,,001,S005,2022_May_26_1614,DecoderConst_fMRI,59.98546952318298,
13_1_4.png,dog,None,0,213,213,213,,None,0,,,001,S005,2022_May_26_1614,DecoderConst_fMRI,59.98546952318298,
13_1_5.png,dog,None,0,214,214,214,,None,0,,,001,S005,2022_May_26_1614,DecoderConst_fMRI,59.98546952318298,
13_1_6.png,dog,None,0,215,215,215,,None,0,,,001,S005,2022_May_26_1614,DecoderConst_fMRI,59.98546952318298,
30_1_11.png,dolphin,right,0,216,216,216,,None,0,,,001,S005,2022_May_26_1614,DecoderConst_fMRI,59.98546952318298,
30_1_12.png,dolphin,None,0,217,217,217,,None,0,,,001,S005,2022_May_26_1614,DecoderConst_fMRI,59.98546952318298,
30_1_13.png,dolphin,None,0,218,218,218,,None,0,,,001,S005,2022_May_26_1614,DecoderConst_fMRI,59.98546952318298,
30_1_9.png,dolphin,None,0,219,219,219,,None,0,,,001,S005,2022_May_26_1614,DecoderConst_fMRI,59.98546952318298,
30_1_15.png,dolphin,None,0,220,220,220,,None,0,,,001,S005,2022_May_26_1614,DecoderConst_fMRI,59.98546952318298,
30_1_2.png,dolphin,None,0,221,221,221,,None,0,,,001,S005,2022_May_26_1614,DecoderConst_fMRI,59.98546952318298,
32_1_3.png,car,right,0,222,222,222,,None,0,,,001,S005,2022_May_26_1614,DecoderConst_fMRI,59.98546952318298,
32_1_4.png,car,None,0,223,223,223,,None,0,,,001,S005,2022_May_26_1614,DecoderConst_fMRI,59.98546952318298,
32_1_5.png,car,None,0,224,224,224,,None,0,,,001,S005,2022_May_26_1614,DecoderConst_fMRI,59.98546952318298,
32_1_6.png,car,None,0,225,225,225,,None,0,,,001,S005,2022_May_26_1614,DecoderConst_fMRI,59.98546952318298,
32_1_7.png,car,None,0,226,226,226,,None,0,,,001,S005,2022_May_26_1614,DecoderConst_fMRI,59.98546952318298,
32_1_8.png,car,None,0,227,227,227,,None,0,,,001,S005,2022_May_26_1614,DecoderConst_fMRI,59.98546952318298,
5_1_6.png,spider,right,0,228,228,228,,None,0,,,001,S005,2022_May_26_1614,DecoderConst_fMRI,59.98546952318298,
5_1_7.png,spider,None,0,229,229,229,,None,0,,,001,S005,2022_May_26_1614,DecoderConst_fMRI,59.98546952318298,
5_1_8.png,spider,None,0,230,230,230,,None,0,,,001,S005,2022_May_26_1614,DecoderConst_fMRI,59.98546952318298,
5_1_9.png,spider,None,0,231,231,231,,None,0,,,001,S005,2022_May_26_1614,DecoderConst_fMRI,59.98546952318298,
5_1_10.png,spider,None,0,232,232,232,,None,0,,,001,S005,2022_May_26_1614,DecoderConst_fMRI,59.98546952318298,
5_1_11.png,spider,None,0,233,233,233,,None,0,,,001,S005,2022_May_26_1614,DecoderConst_fMRI,59.98546952318298,
33_1_11.png,bicycle,right,0,234,234,234,,None,0,,,001,S005,2022_May_26_1614,DecoderConst_fMRI,59.98546952318298,
33_1_12.png,bicycle,None,0,235,235,235,,None,0,,,001,S005,2022_May_26_1614,DecoderConst_fMRI,59.98546952318298,
33_1_13.png,bicycle,None,0,236,236,236,,None,0,,,001,S005,2022_May_26_1614,DecoderConst_fMRI,59.98546952318298,
20_1_10.png,beatle,right,0,237,237,237,,None,0,,,001,S005,2022_May_26_1614,DecoderConst_fMRI,59.98546952318298,
20_1_4.png,beatle,None,0,238,238,238,,None,0,,,001,S005,2022_May_26_1614,DecoderConst_fMRI,59.98546952318298,
24_1_5.png,peacock,right,0,239,239,239,,None,0,,,001,S005,2022_May_26_1614,DecoderConst_fMRI,59.98546952318298,
24_1_8.png,peacock,None,0,240,240,240,,None,0,,,001,S005,2022_May_26_1614,DecoderConst_fMRI,59.98546952318298,
24_1_1.png,peacock,None,0,241,241,241,,None,0,,,001,S005,2022_May_26_1614,DecoderConst_fMRI,59.98546952318298,
24_1_11.png,peacock,None,0,242,242,242,,None,0,,,001,S005,2022_May_26_1614,DecoderConst_fMRI,59.98546952318298,
17_1_6.png,fish,right,0,243,243,243,,None,0,,,001,S005,2022_May_26_1614,DecoderConst_fMRI,59.98546952318298,
17_1_7.png,fish,None,0,244,244,244,,None,0,,,001,S005,2022_May_26_1614,DecoderConst_fMRI,59.98546952318298,
17_1_8.png,fish,None,0,245,245,245,,None,0,,,001,S005,2022_May_26_1614,DecoderConst_fMRI,59.98546952318298,
17_1_9.png,fish,None,0,246,246,246,,None,0,,,001,S005,2022_May_26_1614,DecoderConst_fMRI,59.98546952318298,
31_1_8.png,airplane,right,0,247,247,247,,None,0,,,001,S005,2022_May_26_1614,DecoderConst_fMRI,59.98546952318298,
31_1_9.png,airplane,None,0,248,248,248,,None,0,,,001,S005,2022_May_26_1614,DecoderConst_fMRI,59.98546952318298,
28_1_10.png,giraffe,right,0,249,249,249,,None,0,,,001,S005,2022_May_26_1614,DecoderConst_fMRI,59.98546952318298,
28_1_11.png,giraffe,None,0,250,250,250,,None,0,,,001,S005,2022_May_26_1614,DecoderConst_fMRI,59.98546952318298,
1_1_1.png,snake,right,0,251,251,251,,None,0,,,001,S005,2022_May_26_1614,DecoderConst_fMRI,59.98546952318298,
1_1_2.png,snake,None,0,252,252,252,,None,0,,,001,S005,2022_May_26_1614,DecoderConst_fMRI,59.98546952318298,
1_1_3.png,snake,None,0,253,253,253,,None,0,,,001,S005,2022_May_26_1614,DecoderConst_fMRI,59.98546952318298,
1_1_4.png,snake,None,0,254,254,254,,None,0,,,001,S005,2022_May_26_1614,DecoderConst_fMRI,59.98546952318298,
26_1_1.png,sheep,right,0,255,255,255,,None,0,,,001,S005,2022_May_26_1614,DecoderConst_fMRI,59.98546952318298,
26_1_2.png,sheep,None,0,256,256,256,,None,0,,,001,S005,2022_May_26_1614,DecoderConst_fMRI,59.98546952318298,
26_1_3.png,sheep,None,0,257,257,257,,None,0,,,001,S005,2022_May_26_1614,DecoderConst_fMRI,59.98546952318298,
14_1_6.png,cat,right,0,258,258,258,,None,0,,,001,S005,2022_May_26_1614,DecoderConst_fMRI,59.98546952318298,
14_1_7.png,cat,None,0,259,259,259,,None,0,,,001,S005,2022_May_26_1614,DecoderConst_fMRI,59.98546952318298,
14_1_8.png,cat,None,0,260,260,260,,None,0,,,001,S005,2022_May_26_1614,DecoderConst_fMRI,59.98546952318298,
14_1_9.png,cat,None,0,261,261,261,,None,0,,,001,S005,2022_May_26_1614,DecoderConst_fMRI,59.98546952318298,
14_1_10.png,cat,None,0,262,262,262,,None,0,,,001,S005,2022_May_26_1614,DecoderConst_fMRI,59.98546952318298,
14_1_11.png,cat,None,0,263,263,263,,None,0,,,001,S005,2022_May_26_1614,DecoderConst_fMRI,59.98546952318298,
19_1_9.png,turtle,right,0,264,264,264,,None,0,,,001,S005,2022_May_26_1614,DecoderConst_fMRI,59.98546952318298,
19_1_10.png,turtle,None,0,265,265,265,,None,0,,,001,S005,2022_May_26_1614,DecoderConst_fMRI,59.98546952318298,
19_1_11.png,turtle,None,0,266,266,266,,None,0,,,001,S005,2022_May_26_1614,DecoderConst_fMRI,59.98546952318298,
36_1_3.png,key,right,0,267,267,267,,None,0,,,001,S005,2022_May_26_1614,DecoderConst_fMRI,59.98546952318298,
36_1_12.png,key,None,0,268,268,268,,None,0,,,001,S005,2022_May_26_1614,DecoderConst_fMRI,59.98546952318298,
36_1_15.png,key,None,0,269,269,269,,None,0,,,001,S005,2022_May_26_1614,DecoderConst_fMRI,59.98546952318298,
34_1_9.png,scissor,right,0,270,270,270,,None,0,,,001,S005,2022_May_26_1614,DecoderConst_fMRI,59.98546952318298,
34_1_10.png,scissor,None,0,271,271,271,,None,0,,,001,S005,2022_May_26_1614,DecoderConst_fMRI,59.98546952318298,
34_1_11.png,scissor,None,0,272,272,272,,None,0,,,001,S005,2022_May_26_1614,DecoderConst_fMRI,59.98546952318298,
29_1_6.png,whale,right,0,273,273,273,,None,0,,,001,S005,2022_May_26_1614,DecoderConst_fMRI,59.98546952318298,
29_1_7.png,whale,None,0,274,274,274,,None,0,,,001,S005,2022_May_26_1614,DecoderConst_fMRI,59.98546952318298,
29_1_8.png,whale,None,0,275,275,275,,None,0,,,001,S005,2022_May_26_1614,DecoderConst_fMRI,59.98546952318298,
29_1_9.png,whale,None,0,276,276,276,,None,0,,,001,S005,2022_May_26_1614,DecoderConst_fMRI,59.98546952318298,
29_1_10.png,whale,None,0,277,277,277,,None,0,,,001,S005,2022_May_26_1614,DecoderConst_fMRI,59.98546952318298,
29_1_11.png,whale,None,0,278,278,278,,None,0,,,001,S005,2022_May_26_1614,DecoderConst_fMRI,59.98546952318298,
14_1_1.png,cat,right,0,279,279,279,,None,0,,,001,S005,2022_May_26_1614,DecoderConst_fMRI,59.98546952318298,
14_1_2.png,cat,None,0,280,280,280,,None,0,,,001,S005,2022_May_26_1614,DecoderConst_fMRI,59.98546952318298,
7_1_3.png,bee,right,0,281,281,281,,None,0,,,001,S005,2022_May_26_1614,DecoderConst_fMRI,59.98546952318298,
7_1_6.png,bee,None,0,282,282,282,,None,0,,,001,S005,2022_May_26_1614,DecoderConst_fMRI,59.98546952318298,
7_1_15.png,bee,None,0,283,283,283,,None,0,,,001,S005,2022_May_26_1614,DecoderConst_fMRI,59.98546952318298,
11_1_14.png,chicken,right,0,284,284,284,,None,0,,,001,S005,2022_May_26_1614,DecoderConst_fMRI,59.98546952318298,
11_1_15.png,chicken,None,0,285,285,285,,None,0,,,001,S005,2022_May_26_1614,DecoderConst_fMRI,59.98546952318298,
26_1_4.png,sheep,right,0,286,286,286,,None,0,,,001,S005,2022_May_26_1614,DecoderConst_fMRI,59.98546952318298,
26_1_5.png,sheep,None,0,287,287,287,,None,0,,,001,S005,2022_May_26_1614,DecoderConst_fMRI,59.98546952318298,
28_1_1.png,giraffe,right,0,288,288,288,,None,0,,,001,S005,2022_May_26_1614,DecoderConst_fMRI,59.98546952318298,
28_1_2.png,giraffe,None,0,289,289,289,,None,0,,,001,S005,2022_May_26_1614,DecoderConst_fMRI,59.98546952318298,
28_1_3.png,giraffe,None,0,290,290,290,,None,0,,,001,S005,2022_May_26_1614,DecoderConst_fMRI,59.98546952318298,
8_1_1.png,butterfly,right,0,291,291,291,,None,0,,,001,S005,2022_May_26_1614,DecoderConst_fMRI,59.98546952318298,
8_1_2.png,butterfly,None,0,292,292,292,,None,0,,,001,S005,2022_May_26_1614,DecoderConst_fMRI,59.98546952318298,
8_1_3.png,butterfly,None,0,293,293,293,,None,0,,,001,S005,2022_May_26_1614,DecoderConst_fMRI,59.98546952318298,
3_1_2.png,cockroach,right,0,294,294,294,,None,0,,,001,S005,2022_May_26_1614,DecoderConst_fMRI,59.98546952318298,
3_1_8.png,cockroach,None,0,295,295,295,,None,0,,,001,S005,2022_May_26_1614,DecoderConst_fMRI,59.98546952318298,
3_1_15.png,cockroach,None,0,296,296,296,,None,0,,,001,S005,2022_May_26_1614,DecoderConst_fMRI,59.98546952318298,
15_1_6.png,horse,right,0,297,297,297,,None,0,,,001,S005,2022_May_26_1614,DecoderConst_fMRI,59.98546952318298,
15_1_7.png,horse,None,0,298,298,298,,None,0,,,001,S005,2022_May_26_1614,DecoderConst_fMRI,59.98546952318298,
15_1_8.png,horse,None,0,299,299,299,,None,0,,,001,S005,2022_May_26_1614,DecoderConst_fMRI,59.98546952318298,
15_1_9.png,horse,None,0,300,300,300,,None,0,,,001,S005,2022_May_26_1614,DecoderConst_fMRI,59.98546952318298,
15_1_10.png,horse,None,0,301,301,301,,None,0,,,001,S005,2022_May_26_1614,DecoderConst_fMRI,59.98546952318298,
15_1_11.png,horse,None,0,302,302,302,,None,0,,,001,S005,2022_May_26_1614,DecoderConst_fMRI,59.98546952318298,
12_1_14.png,mouse,right,0,303,303,303,,None,0,,,001,S005,2022_May_26_1614,DecoderConst_fMRI,59.98546952318298,
12_1_15.png,mouse,None,0,304,304,304,,None,0,,,001,S005,2022_May_26_1614,DecoderConst_fMRI,59.98546952318298,
35_1_10.png,hammer,right,0,305,305,305,,None,0,,,001,S005,2022_May_26_1614,DecoderConst_fMRI,59.98546952318298,
35_1_11.png,hammer,None,0,306,306,306,,None,0,,,001,S005,2022_May_26_1614,DecoderConst_fMRI,59.98546952318298,
35_1_12.png,hammer,None,0,307,307,307,,None,0,,,001,S005,2022_May_26_1614,DecoderConst_fMRI,59.98546952318298,
35_1_13.png,hammer,None,0,308,308,308,,None,0,,,001,S005,2022_May_26_1614,DecoderConst_fMRI,59.98546952318298,
23_1_1.png,fly,right,0,309,309,309,,None,0,,,001,S005,2022_May_26_1614,DecoderConst_fMRI,59.98546952318298,
23_1_2.png,fly,None,0,310,310,310,,None,0,,,001,S005,2022_May_26_1614,DecoderConst_fMRI,59.98546952318298,
4_1_12.png,ants,right,0,311,311,311,,None,0,,,001,S005,2022_May_26_1614,DecoderConst_fMRI,59.98546952318298,
4_1_13.png,ants,None,0,312,312,312,,None,0,,,001,S005,2022_May_26_1614,DecoderConst_fMRI,59.98546952318298,
4_1_14.png,ants,None,0,313,313,313,,None,0,,,001,S005,2022_May_26_1614,DecoderConst_fMRI,59.98546952318298,
4_1_15.png,ants,None,0,314,314,314,,None,0,,,001,S005,2022_May_26_1614,DecoderConst_fMRI,59.98546952318298,
27_1_14.png,rabbit,right,0,315,315,315,,None,0,,,001,S005,2022_May_26_1614,DecoderConst_fMRI,59.98546952318298,
27_1_15.png,rabbit,None,0,316,316,316,,None,0,,,001,S005,2022_May_26_1614,DecoderConst_fMRI,59.98546952318298,
22_1_13.png,catterpilar,right,0,317,317,317,,None,0,,,001,S005,2022_May_26_1614,DecoderConst_fMRI,59.98546952318298,
22_1_14.png,catterpilar,None,0,318,318,318,,None,0,,,001,S005,2022_May_26_1614,DecoderConst_fMRI,59.98546952318298,
22_1_15.png,catterpilar,None,0,319,319,319,,None,0,,,001,S005,2022_May_26_1614,DecoderConst_fMRI,59.98546952318298,
39_1_9.png,umbrella,right,0,320,320,320,,None,0,,,001,S005,2022_May_26_1614,DecoderConst_fMRI,59.98546952318298,
39_1_10.png,umbrella,None,0,321,321,321,,None,0,,,001,S005,2022_May_26_1614,DecoderConst_fMRI,59.98546952318298,
39_1_11.png,umbrella,None,0,322,322,322,,None,0,,,001,S005,2022_May_26_1614,DecoderConst_fMRI,59.98546952318298,
39_1_12.png,umbrella,None,0,323,323,323,,None,0,,,001,S005,2022_May_26_1614,DecoderConst_fMRI,59.98546952318298,
40_1_5.png,chair,right,0,324,324,324,,None,0,,,001,S005,2022_May_26_1614,DecoderConst_fMRI,59.98546952318298,
40_1_6.png,chair,None,0,325,325,325,,None,0,,,001,S005,2022_May_26_1614,DecoderConst_fMRI,59.98546952318298,
40_1_7.png,chair,None,0,326,326,326,,None,0,,,001,S005,2022_May_26_1614,DecoderConst_fMRI,59.98546952318298,
40_1_8.png,chair,None,0,327,327,327,,None,0,,,001,S005,2022_May_26_1614,DecoderConst_fMRI,59.98546952318298,
40_1_9.png,chair,None,0,328,328,328,,None,0,,,001,S005,2022_May_26_1614,DecoderConst_fMRI,59.98546952318298,
40_1_10.png,chair,None,0,329,329,329,,None,0,,,001,S005,2022_May_26_1614,DecoderConst_fMRI,59.98546952318298,
18_1_14.png,gecko,right,0,330,330,330,,None,0,,,001,S005,2022_May_26_1614,DecoderConst_fMRI,59.98546952318298,
18_1_15.png,gecko,None,0,331,331,331,,None,0,,,001,S005,2022_May_26_1614,DecoderConst_fMRI,59.98546952318298,
28_1_12.png,giraffe,right,0,332,332,332,,None,0,,,001,S005,2022_May_26_1614,DecoderConst_fMRI,59.98546952318298,
28_1_13.png,giraffe,None,0,333,333,333,,None,0,,,001,S005,2022_May_26_1614,DecoderConst_fMRI,59.98546952318298,
28_1_14.png,giraffe,None,0,334,334,334,,None,0,,,001,S005,2022_May_26_1614,DecoderConst_fMRI,59.98546952318298,
28_1_15.png,giraffe,None,0,335,335,335,,None,0,,,001,S005,2022_May_26_1614,DecoderConst_fMRI,59.98546952318298,
13_1_10.png,dog,right,0,336,336,336,,None,0,,,001,S005,2022_May_26_1614,DecoderConst_fMRI,59.98546952318298,
13_1_11.png,dog,None,0,337,337,337,,None,0,,,001,S005,2022_May_26_1614,DecoderConst_fMRI,59.98546952318298,
13_1_12.png,dog,None,0,338,338,338,,None,0,,,001,S005,2022_May_26_1614,DecoderConst_fMRI,59.98546952318298,
13_1_13.png,dog,None,0,339,339,339,,None,0,,,001,S005,2022_May_26_1614,DecoderConst_fMRI,59.98546952318298,
13_1_14.png,dog,None,0,340,340,340,,None,0,,,001,S005,2022_May_26_1614,DecoderConst_fMRI,59.98546952318298,
13_1_15.png,dog,None,0,341,341,341,,None,0,,,001,S005,2022_May_26_1614,DecoderConst_fMRI,59.98546952318298,
1_1_11.png,snake,right,0,342,342,342,,None,0,,,001,S005,2022_May_26_1614,DecoderConst_fMRI,59.98546952318298,
1_1_12.png,snake,None,0,343,343,343,,None,0,,,001,S005,2022_May_26_1614,DecoderConst_fMRI,59.98546952318298,
1_1_13.png,snake,None,0,344,344,344,,None,0,,,001,S005,2022_May_26_1614,DecoderConst_fMRI,59.98546952318298,
17_1_10.png,fish,right,0,345,345,345,,None,0,,,001,S005,2022_May_26_1614,DecoderConst_fMRI,59.98546952318298,
17_1_11.png,fish,None,0,346,346,346,,None,0,,,001,S005,2022_May_26_1614,DecoderConst_fMRI,59.98546952318298,
17_1_12.png,fish,None,0,347,347,347,,None,0,,,001,S005,2022_May_26_1614,DecoderConst_fMRI,59.98546952318298,
17_1_13.png,fish,None,0,348,348,348,,None,0,,,001,S005,2022_May_26_1614,DecoderConst_fMRI,59.98546952318298,
17_1_14.png,fish,None,0,349,349,349,,None,0,,,001,S005,2022_May_26_1614,DecoderConst_fMRI,59.98546952318298,
17_1_15.png,fish,None,0,350,350,350,,None,0,,,001,S005,2022_May_26_1614,DecoderConst_fMRI,59.98546952318298,
20_1_12.png,beatle,right,0,351,351,351,,None,0,,,001,S005,2022_May_26_1614,DecoderConst_fMRI,59.98546952318298,
20_1_8.png,beatle,None,0,352,352,352,,None,0,,,001,S005,2022_May_26_1614,DecoderConst_fMRI,59.98546952318298,
20_1_2.png,beatle,None,0,353,353,353,,None,0,,,001,S005,2022_May_26_1614,DecoderConst_fMRI,59.98546952318298,
20_1_15.png,beatle,None,0,354,354,354,,None,0,,,001,S005,2022_May_26_1614,DecoderConst_fMRI,59.98546952318298,
32_1_9.png,car,right,0,355,355,355,,None,0,,,001,S005,2022_May_26_1614,DecoderConst_fMRI,59.98546952318298,
32_1_10.png,car,None,0,356,356,356,,None,0,,,001,S005,2022_May_26_1614,DecoderConst_fMRI,59.98546952318298,
32_1_11.png,car,None,0,357,357,357,,None,0,,,001,S005,2022_May_26_1614,DecoderConst_fMRI,59.98546952318298,
32_1_12.png,car,None,0,358,358,358,,None,0,,,001,S005,2022_May_26_1614,DecoderConst_fMRI,59.98546952318298,
33_1_14.png,bicycle,right,0,359,359,359,,None,0,,,001,S005,2022_May_26_1614,DecoderConst_fMRI,59.98546952318298,
33_1_15.png,bicycle,None,0,360,360,360,,None,0,,,001,S005,2022_May_26_1614,DecoderConst_fMRI,59.98546952318298,
5_1_12.png,spider,right,0,361,361,361,,None,0,,,001,S005,2022_May_26_1614,DecoderConst_fMRI,59.98546952318298,
5_1_13.png,spider,None,0,362,362,362,,None,0,,,001,S005,2022_May_26_1614,DecoderConst_fMRI,59.98546952318298,
5_1_14.png,spider,None,0,363,363,363,,None,0,,,001,S005,2022_May_26_1614,DecoderConst_fMRI,59.98546952318298,
5_1_15.png,spider,None,0,364,364,364,,None,0,,,001,S005,2022_May_26_1614,DecoderConst_fMRI,59.98546952318298,
24_1_9.png,peacock,right,0,365,365,365,,None,0,,,001,S005,2022_May_26_1614,DecoderConst_fMRI,59.98546952318298,
24_1_12.png,peacock,None,0,366,366,366,,None,0,,,001,S005,2022_May_26_1614,DecoderConst_fMRI,59.98546952318298,
24_1_14.png,peacock,None,0,367,367,367,,None,0,,,001,S005,2022_May_26_1614,DecoderConst_fMRI,59.98546952318298,
19_1_12.png,turtle,right,0,368,368,368,,None,0,,,001,S005,2022_May_26_1614,DecoderConst_fMRI,59.98546952318298,
19_1_13.png,turtle,None,0,369,369,369,,None,0,,,001,S005,2022_May_26_1614,DecoderConst_fMRI,59.98546952318298,
19_1_14.png,turtle,None,0,370,370,370,,None,0,,,001,S005,2022_May_26_1614,DecoderConst_fMRI,59.98546952318298,
19_1_15.png,turtle,None,0,371,371,371,,None,0,,,001,S005,2022_May_26_1614,DecoderConst_fMRI,59.98546952318298,
31_1_10.png,airplane,right,0,372,372,372,,None,0,,,001,S005,2022_May_26_1614,DecoderConst_fMRI,59.98546952318298,
31_1_11.png,airplane,None,0,373,373,373,,None,0,,,001,S005,2022_May_26_1614,DecoderConst_fMRI,59.98546952318298,
31_1_12.png,airplane,None,0,374,374,374,,None,0,,,001,S005,2022_May_26_1614,DecoderConst_fMRI,59.98546952318298,
31_1_13.png,airplane,None,0,375,375,375,,None,0,,,001,S005,2022_May_26_1614,DecoderConst_fMRI,59.98546952318298,
31_1_14.png,airplane,None,0,376,376,376,,None,0,,,001,S005,2022_May_26_1614,DecoderConst_fMRI,59.98546952318298,
31_1_15.png,airplane,None,0,377,377,377,,None,0,,,001,S005,2022_May_26_1614,DecoderConst_fMRI,59.98546952318298,
34_1_12.png,scissor,right,0,378,378,378,,None,0,,,001,S005,2022_May_26_1614,DecoderConst_fMRI,59.98546952318298,
34_1_13.png,scissor,None,0,379,379,379,,None,0,,,001,S005,2022_May_26_1614,DecoderConst_fMRI,59.98546952318298,
34_1_14.png,scissor,None,0,380,380,380,,None,0,,,001,S005,2022_May_26_1614,DecoderConst_fMRI,59.98546952318298,
34_1_15.png,scissor,None,0,381,381,381,,None,0,,,001,S005,2022_May_26_1614,DecoderConst_fMRI,59.98546952318298,
26_1_6.png,sheep,right,0,382,382,382,,None,0,,,001,S005,2022_May_26_1614,DecoderConst_fMRI,59.98546952318298,
26_1_7.png,sheep,None,0,383,383,383,,None,0,,,001,S005,2022_May_26_1614,DecoderConst_fMRI,59.98546952318298,
26_1_8.png,sheep,None,0,384,384,384,,None,0,,,001,S005,2022_May_26_1614,DecoderConst_fMRI,59.98546952318298,
26_1_9.png,sheep,None,0,385,385,385,,None,0,,,001,S005,2022_May_26_1614,DecoderConst_fMRI,59.98546952318298,
26_1_10.png,sheep,None,0,386,386,386,,None,0,,,001,S005,2022_May_26_1614,DecoderConst_fMRI,59.98546952318298,
26_1_11.png,sheep,None,0,387,387,387,,None,0,,,001,S005,2022_May_26_1614,DecoderConst_fMRI,59.98546952318298,
29_1_12.png,whale,right,0,388,388,388,,None,0,,,001,S005,2022_May_26_1614,DecoderConst_fMRI,59.98546952318298,
29_1_13.png,whale,None,0,389,389,389,,None,0,,,001,S005,2022_May_26_1614,DecoderConst_fMRI,59.98546952318298,
29_1_14.png,whale,None,0,390,390,390,,None,0,,,001,S005,2022_May_26_1614,DecoderConst_fMRI,59.98546952318298,
29_1_15.png,whale,None,0,391,391,391,,None,0,,,001,S005,2022_May_26_1614,DecoderConst_fMRI,59.98546952318298,
8_1_4.png,butterfly,right,0,392,392,392,,None,0,,,001,S005,2022_May_26_1614,DecoderConst_fMRI,59.98546952318298,
8_1_5.png,butterfly,None,0,393,393,393,,None,0,,,001,S005,2022_May_26_1614,DecoderConst_fMRI,59.98546952318298,
8_1_6.png,butterfly,None,0,394,394,394,,None,0,,,001,S005,2022_May_26_1614,DecoderConst_fMRI,59.98546952318298,
8_1_7.png,butterfly,None,0,395,395,395,,None,0,,,001,S005,2022_May_26_1614,DecoderConst_fMRI,59.98546952318298,
8_1_8.png,butterfly,None,0,396,396,396,,None,0,,,001,S005,2022_May_26_1614,DecoderConst_fMRI,59.98546952318298,
8_1_9.png,butterfly,None,0,397,397,397,,None,0,,,001,S005,2022_May_26_1614,DecoderConst_fMRI,59.98546952318298,
15_1_12.png,horse,right,0,398,398,398,,None,0,,,001,S005,2022_May_26_1614,DecoderConst_fMRI,59.98546952318298,
15_1_13.png,horse,None,0,399,399,399,,None,0,,,001,S005,2022_May_26_1614,DecoderConst_fMRI,59.98546952318298,
15_1_14.png,horse,None,0,400,400,400,,None,0,,,001,S005,2022_May_26_1614,DecoderConst_fMRI,59.98546952318298,
15_1_15.png,horse,None,0,401,401,401,,None,0,,,001,S005,2022_May_26_1614,DecoderConst_fMRI,59.98546952318298,
14_1_3.png,cat,right,0,402,402,402,,None,0,,,001,S005,2022_May_26_1614,DecoderConst_fMRI,59.98546952318298,
14_1_4.png,cat,None,0,403,403,403,,None,0,,,001,S005,2022_May_26_1614,DecoderConst_fMRI,59.98546952318298,
14_1_5.png,cat,None,0,404,404,404,,None,0,,,001,S005,2022_May_26_1614,DecoderConst_fMRI,59.98546952318298,
9_1_1.png,bird,right,0,405,405,405,,None,0,,,001,S005,2022_May_26_1614,DecoderConst_fMRI,59.98546952318298,
9_1_2.png,bird,None,0,406,406,406,,None,0,,,001,S005,2022_May_26_1614,DecoderConst_fMRI,59.98546952318298,
25_1_1.png,guinea pig,right,0,407,407,407,,None,0,,,001,S005,2022_May_26_1614,DecoderConst_fMRI,59.98546952318298,
25_1_2.png,guinea pig,None,0,408,408,408,,None,0,,,001,S005,2022_May_26_1614,DecoderConst_fMRI,59.98546952318298,
10_1_1.png,bat,right,0,409,409,409,,None,0,,,001,S005,2022_May_26_1614,DecoderConst_fMRI,59.98546952318298,
10_1_2.png,bat,None,0,410,410,410,,None,0,,,001,S005,2022_May_26_1614,DecoderConst_fMRI,59.98546952318298,
10_1_3.png,bat,None,0,411,411,411,,None,0,,,001,S005,2022_May_26_1614,DecoderConst_fMRI,59.98546952318298,
10_1_4.png,bat,None,0,412,412,412,,None,0,,,001,S005,2022_May_26_1614,DecoderConst_fMRI,59.98546952318298,
10_1_5.png,bat,None,0,413,413,413,,None,0,,,001,S005,2022_May_26_1614,DecoderConst_fMRI,59.98546952318298,
10_1_6.png,bat,None,0,414,414,414,,None,0,,,001,S005,2022_May_26_1614,DecoderConst_fMRI,59.98546952318298,
37_1_1.png,guitar,right,0,415,415,415,,None,0,,,001,S005,2022_May_26_1614,DecoderConst_fMRI,59.98546952318298,
37_1_2.png,guitar,None,0,416,416,416,,None,0,,,001,S005,2022_May_26_1614,DecoderConst_fMRI,59.98546952318298,
23_1_3.png,fly,right,0,417,417,417,,None,0,,,001,S005,2022_May_26_1614,DecoderConst_fMRI,59.98546952318298,
23_1_4.png,fly,None,0,418,418,418,,None,0,,,001,S005,2022_May_26_1614,DecoderConst_fMRI,59.98546952318298,
23_1_5.png,fly,None,0,419,419,419,,None,0,,,001,S005,2022_May_26_1614,DecoderConst_fMRI,59.98546952318298,
21_1_4.png,grasshoper,right,0,420,420,420,,None,0,,,001,S005,2022_May_26_1614,DecoderConst_fMRI,59.98546952318298,
21_1_5.png,grasshoper,None,0,421,421,421,,None,0,,,001,S005,2022_May_26_1614,DecoderConst_fMRI,59.98546952318298,
21_1_6.png,grasshoper,None,0,422,422,422,,None,0,,,001,S005,2022_May_26_1614,DecoderConst_fMRI,59.98546952318298,
21_1_7.png,grasshoper,None,0,423,423,423,,None,0,,,001,S005,2022_May_26_1614,DecoderConst_fMRI,59.98546952318298,
35_1_14.png,hammer,right,0,424,424,424,,None,0,,,001,S005,2022_May_26_1614,DecoderConst_fMRI,59.98546952318298,
35_1_15.png,hammer,None,0,425,425,425,,None,0,,,001,S005,2022_May_26_1614,DecoderConst_fMRI,59.98546952318298,
16_1_1.png,shark,right,0,426,426,426,,None,0,,,001,S005,2022_May_26_1614,DecoderConst_fMRI,59.98546952318298,
16_1_2.png,shark,None,0,427,427,427,,None,0,,,001,S005,2022_May_26_1614,DecoderConst_fMRI,59.98546952318298,
16_1_3.png,shark,None,0,428,428,428,,None,0,,,001,S005,2022_May_26_1614,DecoderConst_fMRI,59.98546952318298,
16_1_4.png,shark,None,0,429,429,429,,None,0,,,001,S005,2022_May_26_1614,DecoderConst_fMRI,59.98546952318298,
16_1_5.png,shark,None,0,430,430,430,,None,0,,,001,S005,2022_May_26_1614,DecoderConst_fMRI,59.98546952318298,
16_1_6.png,shark,None,0,431,431,431,,None,0,,,001,S005,2022_May_26_1614,DecoderConst_fMRI,59.98546952318298,
22_1_1.png,catterpilar,right,0,432,432,432,,None,0,,,001,S005,2022_May_26_1614,DecoderConst_fMRI,59.98546952318298,
22_1_2.png,catterpilar,None,0,433,433,433,,None,0,,,001,S005,2022_May_26_1614,DecoderConst_fMRI,59.98546952318298,
22_1_3.png,catterpilar,None,0,434,434,434,,None,0,,,001,S005,2022_May_26_1614,DecoderConst_fMRI,59.98546952318298,
22_1_4.png,catterpilar,None,0,435,435,435,,None,0,,,001,S005,2022_May_26_1614,DecoderConst_fMRI,59.98546952318298,
39_1_13.png,umbrella,right,0,436,436,436,,None,0,,,001,S005,2022_May_26_1614,DecoderConst_fMRI,59.98546952318298,
39_1_14.png,umbrella,None,0,437,437,437,,None,0,,,001,S005,2022_May_26_1614,DecoderConst_fMRI,59.98546952318298,
39_1_15.png,umbrella,None,0,438,438,438,,None,0,,,001,S005,2022_May_26_1614,DecoderConst_fMRI,59.98546952318298,
38_1_12.png,cellphone,right,0,439,439,439,,None,0,,,001,S005,2022_May_26_1614,DecoderConst_fMRI,59.98546952318298,
38_1_13.png,cellphone,None,0,440,440,440,,None,0,,,001,S005,2022_May_26_1614,DecoderConst_fMRI,59.98546952318298,
38_1_14.png,cellphone,None,0,441,441,441,,None,0,,,001,S005,2022_May_26_1614,DecoderConst_fMRI,59.98546952318298,
38_1_15.png,cellphone,None,0,442,442,442,,None,0,,,001,S005,2022_May_26_1614,DecoderConst_fMRI,59.98546952318298,
40_1_14.png,chair,right,0,443,443,443,,None,0,,,001,S005,2022_May_26_1614,DecoderConst_fMRI,59.98546952318298,
40_1_15.png,chair,None,0,444,444,444,,None,0,,,001,S005,2022_May_26_1614,DecoderConst_fMRI,59.98546952318298,
6_1_1.png,worm,right,0,445,445,445,,None,0,,,001,S005,2022_May_26_1614,DecoderConst_fMRI,59.98546952318298,
6_1_2.png,worm,None,0,446,446,446,,None,0,,,001,S005,2022_May_26_1614,DecoderConst_fMRI,59.98546952318298,
28_1_4.png,giraffe,right,0,447,447,447,,None,0,,,001,S005,2022_May_26_1614,DecoderConst_fMRI,59.98546952318298,
28_1_5.png,giraffe,None,0,448,448,448,,None,0,,,001,S005,2022_May_26_1614,DecoderConst_fMRI,59.98546952318298,
28_1_6.png,giraffe,None,0,449,449,449,,None,0,,,001,S005,2022_May_26_1614,DecoderConst_fMRI,59.98546952318298,
28_1_7.png,giraffe,None,0,450,450,450,,None,0,,,001,S005,2022_May_26_1614,DecoderConst_fMRI,59.98546952318298,
28_1_8.png,giraffe,None,0,451,451,451,,None,0,,,001,S005,2022_May_26_1614,DecoderConst_fMRI,59.98546952318298,
28_1_9.png,giraffe,None,0,452,452,452,,None,0,,,001,S005,2022_May_26_1614,DecoderConst_fMRI,59.98546952318298,
9_1_3.png,bird,right,0,453,453,453,,None,0,,,001,S005,2022_May_26_1614,DecoderConst_fMRI,59.98546952318298,
9_1_4.png,bird,None,0,454,454,454,,None,0,,,001,S005,2022_May_26_1614,DecoderConst_fMRI,59.98546952318298,
9_1_5.png,bird,None,0,455,455,455,,None,0,,,001,S005,2022_May_26_1614,DecoderConst_fMRI,59.98546952318298,
1_1_5.png,snake,right,0,456,456,456,,None,0,,,001,S005,2022_May_26_1614,DecoderConst_fMRI,59.98546952318298,
1_1_6.png,snake,None,0,457,457,457,,None,0,,,001,S005,2022_May_26_1614,DecoderConst_fMRI,59.98546952318298,
1_1_7.png,snake,None,0,458,458,458,,None,0,,,001,S005,2022_May_26_1614,DecoderConst_fMRI,59.98546952318298,
1_1_8.png,snake,None,0,459,459,459,,None,0,,,001,S005,2022_May_26_1614,DecoderConst_fMRI,59.98546952318298,
1_1_9.png,snake,None,0,460,460,460,,None,0,,,001,S005,2022_May_26_1614,DecoderConst_fMRI,59.98546952318298,
1_1_10.png,snake,None,0,461,461,461,,None,0,,,001,S005,2022_May_26_1614,DecoderConst_fMRI,59.98546952318298,
26_1_12.png,sheep,right,0,462,462,462,,None,0,,,001,S005,2022_May_26_1614,DecoderConst_fMRI,59.98546952318298,
26_1_13.png,sheep,None,0,463,463,463,,None,0,,,001,S005,2022_May_26_1614,DecoderConst_fMRI,59.98546952318298,
26_1_14.png,sheep,None,0,464,464,464,,None,0,,,001,S005,2022_May_26_1614,DecoderConst_fMRI,59.98546952318298,
26_1_15.png,sheep,None,0,465,465,465,,None,0,,,001,S005,2022_May_26_1614,DecoderConst_fMRI,59.98546952318298,
8_1_10.png,butterfly,right,0,466,466,466,,None,0,,,001,S005,2022_May_26_1614,DecoderConst_fMRI,59.98546952318298,
8_1_11.png,butterfly,None,0,467,467,467,,None,0,,,001,S005,2022_May_26_1614,DecoderConst_fMRI,59.98546952318298,
25_1_3.png,guinea pig,right,0,468,468,468,,None,0,,,001,S005,2022_May_26_1614,DecoderConst_fMRI,59.98546952318298,
25_1_4.png,guinea pig,None,0,469,469,469,,None,0,,,001,S005,2022_May_26_1614,DecoderConst_fMRI,59.98546952318298,
25_1_5.png,guinea pig,None,0,470,470,470,,None,0,,,001,S005,2022_May_26_1614,DecoderConst_fMRI,59.98546952318298,
25_1_6.png,guinea pig,None,0,471,471,471,,None,0,,,001,S005,2022_May_26_1614,DecoderConst_fMRI,59.98546952318298,
25_1_7.png,guinea pig,None,0,472,472,472,,None,0,,,001,S005,2022_May_26_1614,DecoderConst_fMRI,59.98546952318298,
25_1_8.png,guinea pig,None,0,473,473,473,,None,0,,,001,S005,2022_May_26_1614,DecoderConst_fMRI,59.98546952318298,
21_1_1.png,grasshoper,right,0,474,474,474,,None,0,,,001,S005,2022_May_26_1614,DecoderConst_fMRI,59.98546952318298,
21_1_2.png,grasshoper,None,0,475,475,475,,None,0,,,001,S005,2022_May_26_1614,DecoderConst_fMRI,59.98546952318298,
21_1_3.png,grasshoper,None,0,476,476,476,,None,0,,,001,S005,2022_May_26_1614,DecoderConst_fMRI,59.98546952318298,
37_1_3.png,guitar,right,0,477,477,477,,None,0,,,001,S005,2022_May_26_1614,DecoderConst_fMRI,59.98546952318298,
37_1_4.png,guitar,None,0,478,478,478,,None,0,,,001,S005,2022_May_26_1614,DecoderConst_fMRI,59.98546952318298,
37_1_5.png,guitar,None,0,479,479,479,,None,0,,,001,S005,2022_May_26_1614,DecoderConst_fMRI,59.98546952318298,
37_1_6.png,guitar,None,0,480,480,480,,None,0,,,001,S005,2022_May_26_1614,DecoderConst_fMRI,59.98546952318298,
37_1_7.png,guitar,None,0,481,481,481,,None,0,,,001,S005,2022_May_26_1614,DecoderConst_fMRI,59.98546952318298,
37_1_8.png,guitar,None,0,482,482,482,,None,0,,,001,S005,2022_May_26_1614,DecoderConst_fMRI,59.98546952318298,
10_1_7.png,bat,right,0,483,483,483,,None,0,,,001,S005,2022_May_26_1614,DecoderConst_fMRI,59.98546952318298,
10_1_8.png,bat,None,0,484,484,484,,None,0,,,001,S005,2022_May_26_1614,DecoderConst_fMRI,59.98546952318298,
9_1_6.png,bird,right,0,485,485,485,,None,0,,,001,S005,2022_May_26_1614,DecoderConst_fMRI,59.98546952318298,
9_1_7.png,bird,None,0,486,486,486,,None,0,,,001,S005,2022_May_26_1614,DecoderConst_fMRI,59.98546952318298,
9_1_8.png,bird,None,0,487,487,487,,None,0,,,001,S005,2022_May_26_1614,DecoderConst_fMRI,59.98546952318298,
9_1_9.png,bird,None,0,488,488,488,,None,0,,,001,S005,2022_May_26_1614,DecoderConst_fMRI,59.98546952318298,
16_1_7.png,shark,right,0,489,489,489,,None,0,,,001,S005,2022_May_26_1614,DecoderConst_fMRI,59.98546952318298,
16_1_8.png,shark,None,0,490,490,490,,None,0,,,001,S005,2022_May_26_1614,DecoderConst_fMRI,59.98546952318298,
16_1_9.png,shark,None,0,491,491,491,,None,0,,,001,S005,2022_May_26_1614,DecoderConst_fMRI,59.98546952318298,
16_1_10.png,shark,None,0,492,492,492,,None,0,,,001,S005,2022_May_26_1614,DecoderConst_fMRI,59.98546952318298,
6_1_3.png,worm,right,0,493,493,493,,None,0,,,001,S005,2022_May_26_1614,DecoderConst_fMRI,59.98546952318298,
6_1_4.png,worm,None,0,494,494,494,,None,0,,,001,S005,2022_May_26_1614,DecoderConst_fMRI,59.98546952318298,
6_1_5.png,worm,None,0,495,495,495,,None,0,,,001,S005,2022_May_26_1614,DecoderConst_fMRI,59.98546952318298,
6_1_6.png,worm,None,0,496,496,496,,None,0,,,001,S005,2022_May_26_1614,DecoderConst_fMRI,59.98546952318298,
6_1_7.png,worm,None,0,497,497,497,,None,0,,,001,S005,2022_May_26_1614,DecoderConst_fMRI,59.98546952318298,
6_1_8.png,worm,None,0,498,498,498,,None,0,,,001,S005,2022_May_26_1614,DecoderConst_fMRI,59.98546952318298,
22_1_5.png,catterpilar,right,0,499,499,499,,None,0,,,001,S005,2022_May_26_1614,DecoderConst_fMRI,59.98546952318298,
22_1_6.png,catterpilar,None,0,500,500,500,,None,0,,,001,S005,2022_May_26_1614,DecoderConst_fMRI,59.98546952318298,
2_1_7.png,frog,right,0,501,501,501,,None,0,,,001,S005,2022_May_26_1614,DecoderConst_fMRI,59.98546952318298,
2_1_8.png,frog,None,0,502,502,502,,None,0,,,001,S005,2022_May_26_1614,DecoderConst_fMRI,59.98546952318298,
14_1_12.png,cat,right,0,503,503,503,,None,0,,,001,S005,2022_May_26_1614,DecoderConst_fMRI,59.98546952318298,
14_1_13.png,cat,None,0,504,504,504,,None,0,,,001,S005,2022_May_26_1614,DecoderConst_fMRI,59.98546952318298,
14_1_14.png,cat,None,0,505,505,505,,None,0,,,001,S005,2022_May_26_1614,DecoderConst_fMRI,59.98546952318298,
14_1_15.png,cat,None,0,506,506,506,,None,0,,,001,S005,2022_May_26_1614,DecoderConst_fMRI,59.98546952318298,
38_1_4.png,cellphone,right,0,507,507,507,,None,0,,,001,S005,2022_May_26_1614,DecoderConst_fMRI,59.98546952318298,
38_1_5.png,cellphone,None,0,508,508,508,,None,0,,,001,S005,2022_May_26_1614,DecoderConst_fMRI,59.98546952318298,
21_1_8.png,grasshoper,right,0,509,509,509,,None,0,,,001,S005,2022_May_26_1614,DecoderConst_fMRI,59.98546952318298,
21_1_9.png,grasshoper,None,0,510,510,510,,None,0,,,001,S005,2022_May_26_1614,DecoderConst_fMRI,59.98546952318298,
21_1_10.png,grasshoper,None,0,511,511,511,,None,0,,,001,S005,2022_May_26_1614,DecoderConst_fMRI,59.98546952318298,
21_1_11.png,grasshoper,None,0,512,512,512,,None,0,,,001,S005,2022_May_26_1614,DecoderConst_fMRI,59.98546952318298,
21_1_12.png,grasshoper,None,0,513,513,513,,None,0,,,001,S005,2022_May_26_1614,DecoderConst_fMRI,59.98546952318298,
21_1_13.png,grasshoper,None,0,514,514,514,,None,0,,,001,S005,2022_May_26_1614,DecoderConst_fMRI,59.98546952318298,
25_1_9.png,guinea pig,right,0,515,515,515,,None,0,,,001,S005,2022_May_26_1614,DecoderConst_fMRI,59.98546952318298,
25_1_10.png,guinea pig,None,0,516,516,516,,None,0,,,001,S005,2022_May_26_1614,DecoderConst_fMRI,59.98546952318298,
25_1_11.png,guinea pig,None,0,517,517,517,,None,0,,,001,S005,2022_May_26_1614,DecoderConst_fMRI,59.98546952318298,
25_1_12.png,guinea pig,None,0,518,518,518,,None,0,,,001,S005,2022_May_26_1614,DecoderConst_fMRI,59.98546952318298,
16_1_11.png,shark,right,0,519,519,519,,None,0,,,001,S005,2022_May_26_1614,DecoderConst_fMRI,59.98546952318298,
16_1_12.png,shark,None,0,520,520,520,,None,0,,,001,S005,2022_May_26_1614,DecoderConst_fMRI,59.98546952318298,
2_1_1.png,frog,right,0,521,521,521,,None,0,,,001,S005,2022_May_26_1614,DecoderConst_fMRI,59.98546952318298,
2_1_2.png,frog,None,0,522,522,522,,None,0,,,001,S005,2022_May_26_1614,DecoderConst_fMRI,59.98546952318298,
2_1_3.png,frog,None,0,523,523,523,,None,0,,,001,S005,2022_May_26_1614,DecoderConst_fMRI,59.98546952318298,
2_1_4.png,frog,None,0,524,524,524,,None,0,,,001,S005,2022_May_26_1614,DecoderConst_fMRI,59.98546952318298,
2_1_5.png,frog,None,0,525,525,525,,None,0,,,001,S005,2022_May_26_1614,DecoderConst_fMRI,59.98546952318298,
2_1_6.png,frog,None,0,526,526,526,,None,0,,,001,S005,2022_May_26_1614,DecoderConst_fMRI,59.98546952318298,
38_1_1.png,cellphone,right,0,527,527,527,,None,0,,,001,S005,2022_May_26_1614,DecoderConst_fMRI,59.98546952318298,
38_1_2.png,cellphone,None,0,528,528,528,,None,0,,,001,S005,2022_May_26_1614,DecoderConst_fMRI,59.98546952318298,
38_1_3.png,cellphone,None,0,529,529,529,,None,0,,,001,S005,2022_May_26_1614,DecoderConst_fMRI,59.98546952318298,
10_1_9.png,bat,right,0,530,530,530,,None,0,,,001,S005,2022_May_26_1614,DecoderConst_fMRI,59.98546952318298,
10_1_10.png,bat,None,0,531,531,531,,None,0,,,001,S005,2022_May_26_1614,DecoderConst_fMRI,59.98546952318298,
10_1_11.png,bat,None,0,532,532,532,,None,0,,,001,S005,2022_May_26_1614,DecoderConst_fMRI,59.98546952318298,
23_1_6.png,fly,right,0,533,533,533,,None,0,,,001,S005,2022_May_26_1614,DecoderConst_fMRI,59.98546952318298,
23_1_7.png,fly,None,0,534,534,534,,None,0,,,001,S005,2022_May_26_1614,DecoderConst_fMRI,59.98546952318298,
23_1_8.png,fly,None,0,535,535,535,,None,0,,,001,S005,2022_May_26_1614,DecoderConst_fMRI,59.98546952318298,
23_1_9.png,fly,None,0,536,536,536,,None,0,,,001,S005,2022_May_26_1614,DecoderConst_fMRI,59.98546952318298,
6_1_13.png,worm,right,0,537,537,537,,None,0,,,001,S005,2022_May_26_1614,DecoderConst_fMRI,59.98546952318298,
6_1_14.png,worm,None,0,538,538,538,,None,0,,,001,S005,2022_May_26_1614,DecoderConst_fMRI,59.98546952318298,
6_1_15.png,worm,None,0,539,539,539,,None,0,,,001,S005,2022_May_26_1614,DecoderConst_fMRI,59.98546952318298,
37_1_9.png,guitar,right,0,540,540,540,,None,0,,,001,S005,2022_May_26_1614,DecoderConst_fMRI,59.98546952318298,
37_1_10.png,guitar,None,0,541,541,541,,None,0,,,001,S005,2022_May_26_1614,DecoderConst_fMRI,59.98546952318298,
37_1_11.png,guitar,None,0,542,542,542,,None,0,,,001,S005,2022_May_26_1614,DecoderConst_fMRI,59.98546952318298,
16_1_13.png,shark,right,0,543,543,543,,None,0,,,001,S005,2022_May_26_1614,DecoderConst_fMRI,59.98546952318298,
16_1_14.png,shark,None,0,544,544,544,,None,0,,,001,S005,2022_May_26_1614,DecoderConst_fMRI,59.98546952318298,
16_1_15.png,shark,None,0,545,545,545,,None,0,,,001,S005,2022_May_26_1614,DecoderConst_fMRI,59.98546952318298,
2_1_9.png,frog,right,0,546,546,546,,None,0,,,001,S005,2022_May_26_1614,DecoderConst_fMRI,59.98546952318298,
2_1_10.png,frog,None,0,547,547,547,,None,0,,,001,S005,2022_May_26_1614,DecoderConst_fMRI,59.98546952318298,
2_1_11.png,frog,None,0,548,548,548,,None,0,,,001,S005,2022_May_26_1614,DecoderConst_fMRI,59.98546952318298,
38_1_6.png,cellphone,right,0,549,549,549,,None,0,,,001,S005,2022_May_26_1614,DecoderConst_fMRI,59.98546952318298,
38_1_7.png,cellphone,None,0,550,550,550,,None,0,,,001,S005,2022_May_26_1614,DecoderConst_fMRI,59.98546952318298,
38_1_8.png,cellphone,None,0,551,551,551,,None,0,,,001,S005,2022_May_26_1614,DecoderConst_fMRI,59.98546952318298,
38_1_9.png,cellphone,None,0,552,552,552,,None,0,,,001,S005,2022_May_26_1614,DecoderConst_fMRI,59.98546952318298,
38_1_10.png,cellphone,None,0,553,553,553,,None,0,,,001,S005,2022_May_26_1614,DecoderConst_fMRI,59.98546952318298,
38_1_11.png,cellphone,None,0,554,554,554,,None,0,,,001,S005,2022_May_26_1614,DecoderConst_fMRI,59.98546952318298,
21_1_14.png,grasshoper,right,0,555,555,555,,None,0,,,001,S005,2022_May_26_1614,DecoderConst_fMRI,59.98546952318298,
21_1_15.png,grasshoper,None,0,556,556,556,,None,0,,,001,S005,2022_May_26_1614,DecoderConst_fMRI,59.98546952318298,
6_1_9.png,worm,right,0,557,557,557,,None,0,,,001,S005,2022_May_26_1614,DecoderConst_fMRI,59.98546952318298,
6_1_10.png,worm,None,0,558,558,558,,None,0,,,001,S005,2022_May_26_1614,DecoderConst_fMRI,59.98546952318298,
6_1_11.png,worm,None,0,559,559,559,,None,0,,,001,S005,2022_May_26_1614,DecoderConst_fMRI,59.98546952318298,
6_1_12.png,worm,None,0,560,560,560,,None,0,,,001,S005,2022_May_26_1614,DecoderConst_fMRI,59.98546952318298,
37_1_12.png,guitar,right,0,561,561,561,,None,0,,,001,S005,2022_May_26_1614,DecoderConst_fMRI,59.98546952318298,
37_1_13.png,guitar,None,0,562,562,562,,None,0,,,001,S005,2022_May_26_1614,DecoderConst_fMRI,59.98546952318298,
37_1_14.png,guitar,None,0,563,563,563,,None,0,,,001,S005,2022_May_26_1614,DecoderConst_fMRI,59.98546952318298,
37_1_15.png,guitar,None,0,564,564,564,,None,0,,,001,S005,2022_May_26_1614,DecoderConst_fMRI,59.98546952318298,
22_1_7.png,catterpilar,right,0,565,565,565,,None,0,,,001,S005,2022_May_26_1614,DecoderConst_fMRI,59.98546952318298,
22_1_8.png,catterpilar,None,0,566,566,566,,None,0,,,001,S005,2022_May_26_1614,DecoderConst_fMRI,59.98546952318298,
22_1_9.png,catterpilar,None,0,567,567,567,,None,0,,,001,S005,2022_May_26_1614,DecoderConst_fMRI,59.98546952318298,
22_1_10.png,catterpilar,None,0,568,568,568,,None,0,,,001,S005,2022_May_26_1614,DecoderConst_fMRI,59.98546952318298,
22_1_11.png,catterpilar,None,0,569,569,569,,None,0,,,001,S005,2022_May_26_1614,DecoderConst_fMRI,59.98546952318298,
22_1_12.png,catterpilar,None,0,570,570,570,,None,0,,,001,S005,2022_May_26_1614,DecoderConst_fMRI,59.98546952318298,
1_1_14.png,snake,right,0,571,571,571,,None,0,,,001,S005,2022_May_26_1614,DecoderConst_fMRI,59.98546952318298,
1_1_15.png,snake,None,0,572,572,572,,None,0,,,001,S005,2022_May_26_1614,DecoderConst_fMRI,59.98546952318298,
10_1_12.png,bat,right,0,573,573,573,,None,0,,,001,S005,2022_May_26_1614,DecoderConst_fMRI,59.98546952318298,
10_1_13.png,bat,None,0,574,574,574,,None,0,,,001,S005,2022_May_26_1614,DecoderConst_fMRI,59.98546952318298,
10_1_14.png,bat,None,0,575,575,575,,None,0,,,001,S005,2022_May_26_1614,DecoderConst_fMRI,59.98546952318298,
10_1_15.png,bat,None,0,576,576,576,,None,0,,,001,S005,2022_May_26_1614,DecoderConst_fMRI,59.98546952318298,
23_1_10.png,fly,right,0,577,577,577,,None,0,,,001,S005,2022_May_26_1614,DecoderConst_fMRI,59.98546952318298,
23_1_11.png,fly,None,0,578,578,578,,None,0,,,001,S005,2022_May_26_1614,DecoderConst_fMRI,59.98546952318298,
23_1_12.png,fly,None,0,579,579,579,,None,0,,,001,S005,2022_May_26_1614,DecoderConst_fMRI,59.98546952318298,
23_1_13.png,fly,None,0,580,580,580,,None,0,,,001,S005,2022_May_26_1614,DecoderConst_fMRI,59.98546952318298,
23_1_14.png,fly,None,0,581,581,581,,None,0,,,001,S005,2022_May_26_1614,DecoderConst_fMRI,59.98546952318298,
23_1_15.png,fly,None,0,582,582,582,,None,0,,,001,S005,2022_May_26_1614,DecoderConst_fMRI,59.98546952318298,
8_1_12.png,butterfly,right,0,583,583,583,,None,0,,,001,S005,2022_May_26_1614,DecoderConst_fMRI,59.98546952318298,
8_1_13.png,butterfly,None,0,584,584,584,,None,0,,,001,S005,2022_May_26_1614,DecoderConst_fMRI,59.98546952318298,
8_1_14.png,butterfly,None,0,585,585,585,,None,0,,,001,S005,2022_May_26_1614,DecoderConst_fMRI,59.98546952318298,
8_1_15.png,butterfly,None,0,586,586,586,,None,0,,,001,S005,2022_May_26_1614,DecoderConst_fMRI,59.98546952318298,
9_1_10.png,bird,right,0,587,587,587,,None,0,,,001,S005,2022_May_26_1614,DecoderConst_fMRI,59.98546952318298,
9_1_11.png,bird,None,0,588,588,588,,None,0,,,001,S005,2022_May_26_1614,DecoderConst_fMRI,59.98546952318298,
9_1_12.png,bird,None,0,589,589,589,,None,0,,,001,S005,2022_May_26_1614,DecoderConst_fMRI,59.98546952318298,
9_1_13.png,bird,None,0,590,590,590,,None,0,,,001,S005,2022_May_26_1614,DecoderConst_fMRI,59.98546952318298,
9_1_14.png,bird,None,0,591,591,591,,None,0,,,001,S005,2022_May_26_1614,DecoderConst_fMRI,59.98546952318298,
9_1_15.png,bird,None,0,592,592,592,,None,0,,,001,S005,2022_May_26_1614,DecoderConst_fMRI,59.98546952318298,
25_1_13.png,guinea pig,right,0,593,593,593,,None,0,,,001,S005,2022_May_26_1614,DecoderConst_fMRI,59.98546952318298,
25_1_14.png,guinea pig,None,0,594,594,594,,None,0,,,001,S005,2022_May_26_1614,DecoderConst_fMRI,59.98546952318298,
25_1_15.png,guinea pig,None,0,595,595,595,,None,0,,,001,S005,2022_May_26_1614,DecoderConst_fMRI,59.98546952318298,
2_1_12.png,frog,right,0,596,596,596,,None,0,,,001,S005,2022_May_26_1614,DecoderConst_fMRI,59.98546952318298,
2_1_13.png,frog,None,0,597,597,597,,None,0,,,001,S005,2022_May_26_1614,DecoderConst_fMRI,59.98546952318298,
2_1_14.png,frog,None,0,598,598,598,,None,0,,,001,S005,2022_May_26_1614,DecoderConst_fMRI,59.98546952318298,
2_1_15.png,frog,None,0,599,599,599,,None,0,,,001,S005,2022_May_26_1614,DecoderConst_fMRI,59.98546952318298,
,,,,,,,,,,,None,001,S005,2022_May_26_1614,DecoderConst_fMRI,59.98546952318298,
