Stimuli,Condition,corrAns,trials.thisRepN,trials.thisTrialN,trials.thisN,trials.thisIndex,key_resp_3.keys,key_resp_4.keys,key_resp_4.corr,key_resp_4.rt,session,participant,date,exp_name,frameRate,
,,,,,,,None,,,,001,test,2022_Apr_25_1140,DecoderConst_fMRI,59.95922953542827,
7_1_5.png,bee,None,0,0,0,0,,None,0,,001,test,2022_Apr_25_1140,DecoderConst_fMRI,59.95922953542827,
7_1_8.png,bee,None,0,1,1,1,,None,0,,001,test,2022_Apr_25_1140,DecoderConst_fMRI,59.95922953542827,
7_1_2.png,bee,None,0,2,2,2,,['t'],0,[9.608268737792969e-05],001,test,2022_Apr_25_1140,DecoderConst_fMRI,59.95922953542827,
7_1_12.png,bee,None,0,3,3,3,,None,0,,001,test,2022_Apr_25_1140,DecoderConst_fMRI,59.95922953542827,
36_1_4.png,key,right,0,4,4,4,,None,0,,001,test,2022_Apr_25_1140,DecoderConst_fMRI,59.95922953542827,
36_1_7.png,key,None,0,5,5,5,,['t'],0,[9.584426879882812e-05],001,test,2022_Apr_25_1140,DecoderConst_fMRI,59.95922953542827,
36_1_11.png,key,None,0,6,6,6,,None,0,,001,test,2022_Apr_25_1140,DecoderConst_fMRI,59.95922953542827,
36_1_14.png,key,None,0,7,7,7,,['t'],0,[0.0001270771026611328],001,test,2022_Apr_25_1140,DecoderConst_fMRI,59.95922953542827,
36_1_5.png,key,None,0,8,8,8,,None,0,,001,test,2022_Apr_25_1140,DecoderConst_fMRI,59.95922953542827,
36_1_2.png,key,None,0,9,9,9,,None,0,,001,test,2022_Apr_25_1140,DecoderConst_fMRI,59.95922953542827,
30_1_10.png,dolphin,right,0,10,10,10,,None,0,,001,test,2022_Apr_25_1140,DecoderConst_fMRI,59.95922953542827,
30_1_8.png,dolphin,None,0,11,11,11,,None,0,,001,test,2022_Apr_25_1140,DecoderConst_fMRI,59.95922953542827,
3_1_3.png,cockroach,right,0,12,12,12,,None,0,,001,test,2022_Apr_25_1140,DecoderConst_fMRI,59.95922953542827,
3_1_7.png,cockroach,None,0,13,13,13,,None,0,,001,test,2022_Apr_25_1140,DecoderConst_fMRI,59.95922953542827,
3_1_10.png,cockroach,None,0,14,14,14,,None,0,,001,test,2022_Apr_25_1140,DecoderConst_fMRI,59.95922953542827,
3_1_13.png,cockroach,None,0,15,15,15,,None,0,,001,test,2022_Apr_25_1140,DecoderConst_fMRI,59.95922953542827,
3_1_9.png,cockroach,None,0,16,16,16,,None,0,,001,test,2022_Apr_25_1140,DecoderConst_fMRI,59.95922953542827,
3_1_5.png,cockroach,None,0,17,17,17,,None,0,,001,test,2022_Apr_25_1140,DecoderConst_fMRI,59.95922953542827,
11_1_1.png,chicken,right,0,18,18,18,,None,0,,001,test,2022_Apr_25_1140,DecoderConst_fMRI,59.95922953542827,
11_1_2.png,chicken,None,0,19,19,19,,None,0,,001,test,2022_Apr_25_1140,DecoderConst_fMRI,59.95922953542827,
11_1_3.png,chicken,None,0,20,20,20,,None,0,,001,test,2022_Apr_25_1140,DecoderConst_fMRI,59.95922953542827,
5_1_1.png,spider,right,0,21,21,21,,None,0,,001,test,2022_Apr_25_1140,DecoderConst_fMRI,59.95922953542827,
5_1_2.png,spider,None,0,22,22,22,,None,0,,001,test,2022_Apr_25_1140,DecoderConst_fMRI,59.95922953542827,
32_1_13.png,car,right,0,23,23,23,,None,0,,001,test,2022_Apr_25_1140,DecoderConst_fMRI,59.95922953542827,
32_1_14.png,car,None,0,24,24,24,,None,0,,001,test,2022_Apr_25_1140,DecoderConst_fMRI,59.95922953542827,
32_1_15.png,car,None,0,25,25,25,,None,0,,001,test,2022_Apr_25_1140,DecoderConst_fMRI,59.95922953542827,
20_1_1.png,beatle,right,0,26,26,26,,None,0,,001,test,2022_Apr_25_1140,DecoderConst_fMRI,59.95922953542827,
20_1_14.png,beatle,None,0,27,27,27,,None,0,,001,test,2022_Apr_25_1140,DecoderConst_fMRI,59.95922953542827,
20_1_3.png,beatle,None,0,28,28,28,,None,0,,001,test,2022_Apr_25_1140,DecoderConst_fMRI,59.95922953542827,
20_1_11.png,beatle,None,0,29,29,29,,None,0,,001,test,2022_Apr_25_1140,DecoderConst_fMRI,59.95922953542827,
20_1_5.png,beatle,None,0,30,30,30,,None,0,,001,test,2022_Apr_25_1140,DecoderConst_fMRI,59.95922953542827,
20_1_6.png,beatle,None,0,31,31,31,,None,0,,001,test,2022_Apr_25_1140,DecoderConst_fMRI,59.95922953542827,
24_1_3.png,peacock,right,0,32,32,32,,None,0,,001,test,2022_Apr_25_1140,DecoderConst_fMRI,59.95922953542827,
24_1_7.png,peacock,None,0,33,33,33,,None,0,,001,test,2022_Apr_25_1140,DecoderConst_fMRI,59.95922953542827,
24_1_10.png,peacock,None,0,34,34,34,,None,0,,001,test,2022_Apr_25_1140,DecoderConst_fMRI,59.95922953542827,
24_1_13.png,peacock,None,0,35,35,35,,None,0,,001,test,2022_Apr_25_1140,DecoderConst_fMRI,59.95922953542827,
24_1_15.png,peacock,None,0,36,36,36,,None,0,,001,test,2022_Apr_25_1140,DecoderConst_fMRI,59.95922953542827,
24_1_6.png,peacock,None,0,37,37,37,,None,0,,001,test,2022_Apr_25_1140,DecoderConst_fMRI,59.95922953542827,
19_1_1.png,turtle,right,0,38,38,38,,None,0,,001,test,2022_Apr_25_1140,DecoderConst_fMRI,59.95922953542827,
19_1_2.png,turtle,None,0,39,39,39,,None,0,,001,test,2022_Apr_25_1140,DecoderConst_fMRI,59.95922953542827,
17_1_1.png,fish,right,0,40,40,40,,None,0,,001,test,2022_Apr_25_1140,DecoderConst_fMRI,59.95922953542827,
17_1_2.png,fish,None,0,41,41,41,,None,0,,001,test,2022_Apr_25_1140,DecoderConst_fMRI,59.95922953542827,
33_1_1.png,bicycle,right,0,42,42,42,,None,0,,001,test,2022_Apr_25_1140,DecoderConst_fMRI,59.95922953542827,
33_1_2.png,bicycle,None,0,43,43,43,,None,0,,001,test,2022_Apr_25_1140,DecoderConst_fMRI,59.95922953542827,
33_1_3.png,bicycle,None,0,44,44,44,,None,0,,001,test,2022_Apr_25_1140,DecoderConst_fMRI,59.95922953542827,
33_1_4.png,bicycle,None,0,45,45,45,,None,0,,001,test,2022_Apr_25_1140,DecoderConst_fMRI,59.95922953542827,
31_1_1.png,airplane,right,0,46,46,46,,None,0,,001,test,2022_Apr_25_1140,DecoderConst_fMRI,59.95922953542827,
31_1_2.png,airplane,None,0,47,47,47,,None,0,,001,test,2022_Apr_25_1140,DecoderConst_fMRI,59.95922953542827,
31_1_3.png,airplane,None,0,48,48,48,,None,0,,001,test,2022_Apr_25_1140,DecoderConst_fMRI,59.95922953542827,
34_1_1.png,scissor,right,0,49,49,49,,None,0,,001,test,2022_Apr_25_1140,DecoderConst_fMRI,59.95922953542827,
